"Subject" "RT" "Trial" "Sex" "NativeLanguage" "Correct" "PrevType" "PrevCorrect" "Word" "Frequency" "FamilySize" "SynsetCount" "Length" "Class" "FreqSingular" "FreqPlural" "DerivEntropy" "Complex" "rInfl" "meanRT" "SubjFreq" "meanSize" "meanWeight" "BNCw" "BNCc" "BNCd" "BNCcRatio" "BNCdRatio"
"1" "A1" 6.340359 23 "F" "English" "correct" "word" "correct" "owl" 4.859812 1.3862944 0.6931472 3 "animal" 54 74 0.7912 "simplex" -0.31015493 6.3582 3.12 3.4758 3.1806 12.057065 0 6.175602 0 0.512198
"2" "A1" 6.308098 27 "F" "English" "correct" "nonword" "correct" "mole" 4.60517 1.0986123 1.9459101 4 "animal" 69 30 0.6968 "simplex" 0.81450804 6.415 2.4 2.9999 2.6112 5.738806 4.062251 2.850278 0.707856 0.496667
"3" "A1" 6.349139 29 "F" "English" "correct" "nonword" "correct" "cherry" 4.997212 0.6931472 1.6094379 6 "plant" 83 49 0.4754 "simplex" 0.51879379 6.3426 3.88 1.6278 1.2081 5.71652 3.249801 12.588727 0.568493 2.202166
"4" "A1" 6.186209 30 "F" "English" "correct" "word" "correct" "pear" 4.727388 0 1.0986123 4 "plant" 44 68 0 "simplex" -0.42744401 6.3353 4.52 1.9908 1.6114 2.05037 1.46241 7.363218 0.713242 3.591166
"5" "A1" 6.025866 32 "F" "English" "correct" "nonword" "correct" "dog" 7.667626 3.1354942 2.0794415 3 "animal" 1233 828 1.2129 "simplex" 0.39779605 6.2956 6.04 4.6429 4.5167 74.838494 50.859385 241.56104 0.679589 3.227765
"6" "A1" 6.180017 33 "F" "English" "correct" "word" "correct" "blackberry" 4.060443 0.6931472 1.3862944 10 "plant" 26 31 0.3492 "complex" -0.16989904 6.3959 3.28 1.5831 1.1365 1.270338 0.16249 1.187616 0.127911 0.934882
"7" "A1" 6.035481 34 "F" "English" "correct" "word" "correct" "strawberry" 4.75359 0 1.3862944 10 "plant" 50 65 0 "complex" -0.25782911 6.3475 5.04 1.8922 1.4951 2.919548 0.64996 18.526805 0.222624 6.345778
"8" "A1" 6.263398 38 "F" "English" "correct" "nonword" "correct" "squirrel" 4.70953 0 1.0986123 8 "animal" 63 47 0 "simplex" 0.28768207 6.4491 2.8 3.7114 3.4178 2.406956 0.81245 1.425139 0.337543 0.592092
"9" "A1" 6.459904 41 "F" "English" "correct" "nonword" "correct" "radish" 3.044522 0.6931472 1.3862944 6 "plant" 11 9 0.9403 "simplex" 0.18232156 6.4133 3.12 1.3226 0.8244 1.961223 0 0 0 0
"10" "A1" 6.184149 42 "F" "English" "correct" "word" "correct" "almond" 4.204693 0 1.0986123 6 "plant" 24 42 0 "simplex" -0.54232429 6.3908 3.72 1.8912 1.486 3.075555 0.16249 1.425139 0.052833 0.463376
"11" "A1" 6.137727 45 "F" "English" "correct" "nonword" "correct" "whale" 5.298317 1.0986123 1.3862944 5 "animal" 104 95 0.4994 "simplex" 0.08961216 6.3548 3.96 3.535 3.2365 5.872526 1.949881 1.900185 0.332034 0.323572
"12" "A1" 6.242223 46 "F" "English" "correct" "word" "correct" "reindeer" 4.043051 0 0.6931472 8 "animal" 28 28 0 "complex" 0 6.4974 2.28 3.7494 3.4517 1.537777 0.97494 0.950093 0.633993 0.617835
"13" "A1" 6.003887 47 "F" "English" "correct" "word" "correct" "blueberry" 2.484907 0 1.0986123 9 "plant" 7 4 0 "complex" 0.47000363 6.3549 3.76 2.0858 1.6507 0.122576 0 0.237523 0 1.937755
"14" "A1" 6.035481 48 "F" "English" "correct" "word" "correct" "lemon" 5.631212 0.6931472 1.6094379 5 "plant" 233 45 0.6285 "simplex" 1.62667972 6.29 5.04 1.8119 1.4315 11.834199 3.087311 22.089653 0.26088 1.866595
"15" "A1" 6.322565 53 "F" "English" "correct" "nonword" "correct" "bee" 5.700444 1.7917595 1.0986123 3 "animal" 118 180 0.8521 "simplex" -0.41937354 6.2978 4.56 3.6399 3.3756 5.281931 1.6249 5.938079 0.307634 1.124225
"16" "A1" 5.988961 54 "F" "English" "correct" "word" "correct" "goat" 6.228511 1.9459101 1.0986123 4 "animal" 209 297 1.0093 "simplex" -0.34998596 6.2772 3.88 3.8703 3.647 6.362832 0.64996 4.037893 0.10215 0.634606
"17" "A1" 6.285998 55 "F" "English" "correct" "word" "correct" "eggplant" 1.791759 0 1.0986123 8 "plant" 4 1 0 "complex" 0.91629073 6.395 3.16 2.3908 1.9674 0.022287 0 0 0 0
"18" "A1" 6.381816 58 "F" "English" "correct" "nonword" "correct" "tomato" 5.545177 0 1.0986123 6 "plant" 123 132 0 "simplex" -0.07006756 6.3422 5.44 2.2952 1.9716 7.120577 0.48747 20.426991 0.068459 2.868727
"19" "A1" 5.958425 59 "F" "English" "correct" "word" "correct" "peanut" 4.59512 0.6931472 1.6094379 6 "plant" 49 49 0.4719 "complex" 0 6.2664 4.68 1.517 1.074 1.214621 0 5.938079 0 4.888832
"20" "A1" 6.124683 61 "F" "English" "incorrect" "nonword" "correct" "bat" 5.918894 2.1972246 2.3025851 3 "animal" 155 103 2.2641 "simplex" 0.40546511 6.329 3.2 2.5589 2.1666 9.427243 5.199682 6.888171 0.551559 0.730667
"21" "A1" 6.741701 62 "F" "English" "correct" "word" "incorrect" "mustard" 4.442651 0 1.3862944 7 "plant" 84 0 0 "simplex" 4.44265126 6.4177 4 1.8218 1.4082 4.524185 4.549721 6.175602 1.005644 1.36502
"22" "A1" 6.821107 64 "F" "English" "correct" "nonword" "correct" "magpie" 2.995732 0 1.0986123 6 "animal" 13 6 0 "simplex" 0.69314718 6.4871 2.68 3.6695 3.3214 1.092045 0.32498 1.187616 0.297589 1.087516
"23" "A1" 6.40688 65 "F" "English" "correct" "word" "correct" "stork" 3.044522 0 0.6931472 5 "animal" 13 7 0 "simplex" 0.55961579 6.5239 2 3.8085 3.4878 0.724315 0 0.475046 0 0.655856
"24" "A1" 6.421622 67 "F" "English" "correct" "nonword" "correct" "goose" 5.267858 1.7917595 1.3862944 5 "animal" 103 85 1.4565 "simplex" 0.1900436 6.3514 3.4 3.0071 2.6612 4.401609 1.949881 1.900185 0.442993 0.431702
"25" "A1" 6.320768 68 "F" "English" "correct" "word" "correct" "squid" 3.970292 0 1.0986123 5 "animal" 23 29 0 "simplex" -0.22314355 6.4089 3.08 3.5957 3.2684 1.64921 0.16249 1.187616 0.098526 0.720112
"26" "A1" 6.20859 75 "F" "English" "correct" "nonword" "correct" "carrot" 4.976734 0.6931472 1.6094379 6 "plant" 45 99 0.0594 "simplex" -0.77652879 6.35 5.48 1.8449 1.4437 3.398711 2.437351 14.963958 0.71714 4.402834
"27" "A1" 6.214608 76 "F" "English" "correct" "word" "correct" "crocodile" 4.615121 0 0.6931472 9 "animal" 35 65 0 "simplex" -0.6061358 6.4433 3.36 3.8372 3.5655 2.574105 2.112371 2.850278 0.820623 1.107289
"28" "A1" 7.114769 79 "F" "English" "correct" "nonword" "correct" "tortoise" 4.624973 0 0.6931472 8 "animal" 71 30 0.3463 "simplex" 0.84267891 6.5318 2.52 3.653 3.3654 1.78293 0.48747 1.425139 0.27341 0.799324
"29" "A1" 6.09131 80 "F" "English" "correct" "word" "correct" "spider" 4.844187 0.6931472 1.0986123 6 "animal" 73 53 0.5763 "simplex" 0.31508105 6.3401 5.04 3.4381 3.1251 6.017389 1.13743 23.039745 0.189024 3.828861
"30" "A1" 6.20859 82 "F" "English" "correct" "nonword" "correct" "grape" 5.192957 1.0986123 1.0986123 5 "plant" 37 142 1.1273 "simplex" -1.32525847 6.3036 4.68 1.5349 1.1317 2.975265 0.64996 1.662662 0.218455 0.558828
"31" "A1" 6.36647 88 "F" "English" "correct" "nonword" "correct" "fox" 5.652489 1.7917595 1.9459101 3 "animal" 177 100 1.2335 "simplex" 0.56666303 6.3451 3.24 3.0987 2.7558 10.028982 83.194905 5.938079 8.295449 0.592092
"32" "A1" 6.582025 91 "F" "English" "correct" "nonword" "correct" "potato" 6.461468 0 1.0986123 6 "plant" 206 433 0 "simplex" -0.74032574 6.3833 5.8 2.8516 2.6131 7.934039 8.286993 25.890023 1.044486 3.263158
"33" "A1" 6.514713 93 "F" "English" "correct" "nonword" "correct" "frog" 5.129899 2.0794415 1.3862944 4 "animal" 74 94 1.0456 "simplex" -0.23638878 6.3335 3.76 3.1746 2.8385 5.059064 1.46241 10.451018 0.289067 2.065801
"34" "A1" 6.352629 94 "F" "English" "correct" "word" "correct" "beetroot" 3.555348 0 1.0986123 8 "plant" 15 19 0 "complex" -0.22314355 6.4468 3.88 1.8705 1.4442 0.635169 0.16249 0.475046 0.255822 0.747906
"35" "A1" 6.278521 96 "F" "English" "correct" "nonword" "correct" "asparagus" 3.663562 0 1.0986123 9 "plant" 19 19 0 "simplex" 0 6.4939 3.68 1.866 1.4424 1.281481 0 0 0 0
"36" "A1" 5.988961 97 "F" "English" "correct" "word" "correct" "mouse" 5.805135 1.9459101 1.6094379 5 "animal" 146 184 0.4497 "simplex" -0.22992324 6.3261 4.44 3.7255 3.4551 18.297321 18.848846 10.688542 1.030142 0.584159
"37" "A1" 6.079933 98 "F" "English" "correct" "word" "correct" "dolphin" 4.007333 0 1.0986123 7 "animal" 24 30 0 "simplex" -0.21511138 6.3944 3.88 3.598 3.272 8.067759 0.32498 0.712569 0.040281 0.088323
"38" "A1" 6.126869 100 "F" "English" "correct" "nonword" "correct" "pineapple" 3.988984 0 1.0986123 9 "plant" 44 9 0 "complex" 1.5040774 6.4022 4.4 1.8716 1.4581 2.596392 0.64996 6.650648 0.250332 2.561496
"39" "A1" 6.284134 102 "F" "English" "correct" "nonword" "correct" "lettuce" 4.812184 0 1.0986123 7 "plant" 115 7 0 "simplex" 2.67414865 6.3753 5.12 2.0139 1.6395 3.721867 0.97494 7.600741 0.261949 2.042185
"40" "A1" 6.089045 106 "F" "English" "correct" "nonword" "correct" "sheep" 6.577861 2.3025851 1.3862944 5 "animal" 359 359 1.5565 "simplex" 0 6.2984 5.2 3.7201 3.4881 29.752647 43.872313 22.327176 1.474568 0.750427
"41" "A1" 6.383507 108 "F" "English" "correct" "nonword" "correct" "cucumber" 4.454347 0 1.0986123 8 "plant" 54 31 0 "simplex" 0.54159728 6.4393 4.48 1.9295 1.5357 2.11723 0.64996 4.037893 0.306986 1.907159
"42" "A1" 6.22059 109 "F" "English" "correct" "word" "correct" "gherkin" 2.079442 0 1.0986123 7 "plant" 4 3 0 "simplex" 0.22314355 6.5161 3.16 2.2484 1.8185 0.111433 0.16249 0.237523 1.458184 2.131531
"43" "A1" 6.381816 111 "F" "English" "correct" "nonword" "correct" "gull" 4.418841 1.6094379 1.0986123 4 "animal" 23 59 1.7296 "simplex" -0.91629073 6.4384 2.6 2.717 2.3265 1.894363 0.32498 0.237523 0.171551 0.125384
"44" "A1" 6.202536 113 "F" "English" "correct" "nonword" "correct" "pig" 6.660575 2.7725887 2.3025851 3 "animal" 320 460 1.6313 "simplex" -0.36195692 6.2783 4.48 3.4075 3.12 12.636518 10.886833 17.576713 0.861537 1.390946
"45" "A1" 6.356108 119 "F" "English" "correct" "nonword" "correct" "camel" 6.109248 0.6931472 0.6931472 5 "animal" 146 303 0.1012 "simplex" -0.72659511 6.386 2.72 4.4303 4.2654 3.320707 0.81245 3.087801 0.244662 0.929862
"46" "A1" 6.107023 120 "F" "English" "correct" "word" "correct" "shark" 5.880533 0.6931472 1.7917595 5 "animal" 246 111 0.0277 "simplex" 0.79088947 6.3179 3.76 3.9283 3.6724 3.231561 0.32498 3.80037 0.100564 1.176017
"47" "A1" 6.517671 123 "F" "English" "correct" "nonword" "correct" "vulture" 4.248495 0 1.0986123 7 "animal" 21 48 0 "simplex" -0.80077784 6.6213 2.28 3.6219 3.3054 1.270338 0.32498 0.237523 0.255822 0.186976
"48" "A1" 6.317165 125 "F" "English" "correct" "nonword" "correct" "snake" 6.120297 1.6094379 1.9459101 5 "animal" 251 161 0.8809 "simplex" 0.44183275 6.3113 3.52 3.5577 3.2734 7.109434 2.599841 4.275417 0.365689 0.601372
"49" "A1" 6.086775 126 "F" "English" "correct" "word" "correct" "donkey" 5.541264 0 1.0986123 6 "animal" 162 92 0.037 "simplex" 0.56115071 6.3328 3.48 3.9986 3.7598 5.081351 3.737271 6.650648 0.735488 1.308835
"50" "A1" 6.163315 127 "F" "English" "correct" "word" "correct" "broccoli" 2.833213 0 1.0986123 8 "plant" 16 0 0 "simplex" 2.83321334 6.4157 4.96 1.9817 1.5459 1.170048 0.64996 5.938079 0.555499 5.075073
"51" "A1" 6.673298 129 "F" "English" "correct" "nonword" "correct" "apricot" 3.828641 0 1.3862944 7 "plant" 26 19 0 "simplex" 0.30010459 6.3637 4.4 1.7597 1.3216 2.340096 0.64996 3.80037 0.277749 1.624023
"52" "A1" 6.434547 133 "F" "English" "correct" "nonword" "correct" "leek" 3.332205 0 1.0986123 4 "plant" 5 22 0 "simplex" -1.34373475 6.42 3.68 1.8898 1.459 0.846892 0.16249 2.375231 0.191866 2.804646
"53" "A1" 6.33328 134 "F" "English" "correct" "word" "correct" "clove" 3.663562 0 1.6094379 5 "plant" 16 22 0 "simplex" -0.30228087 6.4277 3.12 1.6785 1.2208 1.482061 0 0.237523 0 0.160265
"54" "A1" 6.202536 135 "F" "English" "correct" "word" "correct" "banana" 5.023881 0 1.0986123 6 "plant" 74 77 0 "simplex" -0.03922071 6.3178 5.68 2.0802 1.7189 4.524185 1.29992 23.039745 0.287327 5.092573
"55" "A1" 6.111467 136 "F" "English" "correct" "word" "correct" "lion" 6.098074 1.0986123 1.0986123 4 "animal" 152 292 0.234 "simplex" -0.64973469 6.3014 4.04 4.2029 4.0036 12.502798 4.874701 3.80037 0.389889 0.303962
"56" "A1" 6.326149 139 "F" "English" "correct" "nonword" "correct" "elephant" 6.063785 0.6931472 1.0986123 8 "animal" 113 316 0.213 "simplex" -1.02270333 6.322 3.88 4.1927 3.9911 8.691785 8.611973 7.363218 0.990818 0.847147
"57" "A1" 6.903747 141 "F" "English" "correct" "nonword" "correct" "hedgehog" 3.637586 0 1.0986123 8 "animal" 21 16 0 "simplex" 0.25782911 6.5924 3.32 3.592 3.2545 2.718969 0.64996 3.325324 0.239047 1.223009
"58" "A1" 6.306275 144 "F" "English" "correct" "nonword" "correct" "eagle" 5.117994 1.0986123 1.7917595 5 "animal" 129 37 0.7235 "simplex" 1.22994829 6.3692 2.88 3.1948 2.8461 12.246502 1.29992 1.900185 0.106146 0.155161
"59" "A1" 6.118097 146 "F" "English" "correct" "nonword" "correct" "apple" 6.304449 1.0986123 1.0986123 5 "plant" 315 231 0.496 "simplex" 0.30900484 6.2452 5.84 2.473 2.1948 24.54872 7.799522 40.853981 0.317716 1.6642
"60" "A1" 6.472346 148 "F" "English" "correct" "nonword" "correct" "kiwi" 3.044522 0 1.3862944 4 "plant" 11 9 0 "simplex" 0.18232156 6.3173 5.28 1.8289 1.3752 2.139516 0 1.187616 0 0.555086
"61" "A1" 6.697034 151 "F" "English" "correct" "nonword" "correct" "wasp" 4.682131 1.3862944 0.6931472 4 "animal" 43 64 0.4621 "simplex" -0.39019764 6.5057 3.36 3.6045 3.3145 2.551819 1.46241 0.712569 0.573086 0.27924
"62" "A1" 6.148468 152 "F" "English" "correct" "word" "correct" "cat" 7.086738 2.7725887 2.1972246 3 "animal" 739 456 0.6845 "simplex" 0.4819668 6.2675 5.64 4.3152 4.1296 36.940084 18.523866 110.923309 0.501457 3.00279
"63" "A1" 6.59987 153 "F" "English" "correct" "word" "correct" "paprika" 2.484907 0 1.0986123 7 "plant" 11 0 0 "simplex" 2.48490665 6.4825 3.44 2.0858 1.6507 0.456876 0 0.475046 0 1.039771
"64" "A1" 6.775366 157 "F" "English" "correct" "nonword" "correct" "ant" 5.347108 1.3862944 1.0986123 3 "animal" 69 140 0.562 "simplex" -0.70026465 6.3231 3.6 3.6275 3.3489 4.591045 0.16249 3.80037 0.035393 0.827779
"65" "A1" 6.36647 162 "F" "English" "correct" "nonword" "correct" "bunny" 3.332205 0 1.0986123 5 "animal" 19 8 0 "simplex" 0.7985077 6.4092 3.4 3.615 3.271 3.276134 0.16249 10.451018 0.049598 3.190046
"66" "A1" 6.274762 163 "F" "English" "correct" "word" "correct" "beaver" 3.951244 0 2.0794415 6 "animal" 37 14 0 "simplex" 0.92953596 6.4199 2.2 3.2347 2.8413 1.482061 0 0 0 0
"67" "A1" 6.023448 164 "F" "English" "correct" "word" "correct" "horse" 7.77191 3.3322045 2.0794415 5 "animal" 1518 854 1.0925 "simplex" 0.57470603 6.3364 4.84 4.8195 4.7138 79.173243 62.071199 59.855833 0.783992 0.756011
"68" "A1" 6.139885 167 "F" "English" "correct" "nonword" "incorrect" "mushroom" 5.537334 0.6931472 1.9459101 8 "plant" 90 137 0.4777 "simplex" -0.41639418 6.3365 4.8 1.7232 1.3199 3.264991 0.64996 6.413125 0.19907 1.964209
"69" "A1" 6.293419 168 "F" "English" "correct" "word" "correct" "woodpecker" 2.890372 0 0.6931472 10 "animal" 11 6 0 "complex" 0.5389965 6.5041 2.04 3.8417 3.52 1.025185 0.48747 0 0.475495 0
"70" "A1" 6.021023 169 "F" "English" "correct" "word" "correct" "moose" 2.70805 0 0.6931472 5 "animal" 7 7 0 "simplex" 0 6.3349 2.48 3.8893 3.5673 0.668599 0 2.375231 0 3.552551
"71" "A1" 6.188264 170 "F" "English" "correct" "word" "correct" "orange" 6.378426 1.3862944 1.7917595 6 "plant" 258 93 1.0996 "simplex" 1.01353328 6.285 5.6 1.9453 1.5999 16.68154 6.337112 56.530509 0.379888 3.388806
"72" "A1" 6.194405 173 "F" "English" "correct" "nonword" "correct" "avocado" 3.433987 0 1.3862944 7 "plant" 24 6 0 "simplex" 1.27296568 6.4032 4.12 1.7737 1.3256 0.936038 0.81245 0.950093 0.867967 1.015015
"73" "A1" 5.899897 174 "F" "English" "correct" "word" "correct" "chicken" 6.59987 1.0986123 1.7917595 7 "animal" 534 200 0.0798 "simplex" 0.97896184 6.3028 5.68 4.3832 4.1964 17.651009 7.312052 100.709814 0.414257 5.705612
"74" "A1" 6.364751 177 "F" "English" "correct" "nonword" "correct" "butterfly" 5.214936 0 1.0986123 9 "animal" 88 95 0 "complex" -0.07571182 6.4062 4.08 3.8757 3.6141 6.719418 0.64996 5.463032 0.096729 0.813022
"75" "A1" 5.97381 179 "F" "English" "correct" "nonword" "correct" "olive" 5.587249 1.0986123 1.9459101 5 "plant" 160 78 0.5684 "simplex" 0.71195651 6.295 4.12 1.6987 1.2952 3.877873 0 2.850278 0 0.735011
"76" "A1" 6.037871 180 "F" "English" "correct" "word" "correct" "swan" 4.962845 1.3862944 1.3862944 4 "animal" 88 46 0.7769 "simplex" 0.63848877 6.3781 3 3.2612 2.9268 5.281931 2.599841 2.850278 0.492214 0.539628
"77" "A1" 5.97381 182 "F" "English" "correct" "nonword" "correct" "walnut" 4.49981 0 1.3862944 6 "plant" 70 19 0 "simplex" 1.2669476 6.4226 3.92 1.8327 1.422 3.454427 0.64996 4.987986 0.188153 1.44394
"78" "A1" 6.282267 184 "F" "English" "correct" "nonword" "correct" "melon" 4.127134 1.0986123 1.0986123 5 "plant" 38 23 0.5392 "simplex" 0.48550782 6.3712 3.56 1.5924 1.1586 2.15066 0.16249 1.187616 0.075554 0.55221
"79" "A1" 6.040255 185 "F" "English" "correct" "word" "correct" "monkey" 5.783825 0 1.6094379 6 "animal" 162 162 0 "simplex" 0 6.3075 4 3.9559 3.7049 5.348791 2.924821 14.963958 0.546819 2.797634
"475" "A2" 6.329721 23 "M" "English" "correct" "word" "correct" "dog" 7.667626 3.1354942 2.0794415 3 "animal" 1233 828 1.2129 "simplex" 0.39779605 6.2956 6.04 4.6429 4.5167 74.838494 50.859385 241.56104 0.679589 3.227765
"476" "A2" 6.20859 25 "M" "English" "correct" "nonword" "correct" "apricot" 3.828641 0 1.3862944 7 "plant" 26 19 0 "simplex" 0.30010459 6.3637 4.4 1.7597 1.3216 2.340096 0.64996 3.80037 0.277749 1.624023
"477" "A2" 6.270988 31 "M" "English" "correct" "nonword" "correct" "beaver" 3.951244 0 2.0794415 6 "animal" 37 14 0 "simplex" 0.92953596 6.4199 2.2 3.2347 2.8413 1.482061 0 0 0 0
"478" "A2" 6.45047 32 "M" "English" "correct" "word" "correct" "dolphin" 4.007333 0 1.0986123 7 "animal" 24 30 0 "simplex" -0.21511138 6.3944 3.88 3.598 3.272 8.067759 0.32498 0.712569 0.040281 0.088323
"479" "A2" 6.36647 33 "M" "English" "correct" "word" "correct" "walnut" 4.49981 0 1.3862944 6 "plant" 70 19 0 "simplex" 1.2669476 6.4226 3.92 1.8327 1.422 3.454427 0.64996 4.987986 0.188153 1.44394
"480" "A2" 6.293419 36 "M" "English" "correct" "nonword" "correct" "camel" 6.109248 0.6931472 0.6931472 5 "animal" 146 303 0.1012 "simplex" -0.72659511 6.386 2.72 4.4303 4.2654 3.320707 0.81245 3.087801 0.244662 0.929862
"481" "A2" 6.198479 39 "M" "English" "correct" "nonword" "correct" "olive" 5.587249 1.0986123 1.9459101 5 "plant" 160 78 0.5684 "simplex" 0.71195651 6.295 4.12 1.6987 1.2952 3.877873 0 2.850278 0 0.735011
"482" "A2" 6.154858 42 "M" "English" "correct" "nonword" "correct" "whale" 5.298317 1.0986123 1.3862944 5 "animal" 104 95 0.4994 "simplex" 0.08961216 6.3548 3.96 3.535 3.2365 5.872526 1.949881 1.900185 0.332034 0.323572
"483" "A2" 6.20859 44 "M" "English" "correct" "nonword" "correct" "donkey" 5.541264 0 1.0986123 6 "animal" 162 92 0.037 "simplex" 0.56115071 6.3328 3.48 3.9986 3.7598 5.081351 3.737271 6.650648 0.735488 1.308835
"484" "A2" 6.156979 45 "M" "English" "correct" "word" "correct" "lettuce" 4.812184 0 1.0986123 7 "plant" 115 7 0 "simplex" 2.67414865 6.3753 5.12 2.0139 1.6395 3.721867 0.97494 7.600741 0.261949 2.042185
"485" "A2" 6.146329 46 "M" "English" "correct" "word" "correct" "gull" 4.418841 1.6094379 1.0986123 4 "animal" 23 59 1.7296 "simplex" -0.91629073 6.4384 2.6 2.717 2.3265 1.894363 0.32498 0.237523 0.171551 0.125384
"486" "A2" 5.942799 50 "M" "English" "correct" "nonword" "correct" "goat" 6.228511 1.9459101 1.0986123 4 "animal" 209 297 1.0093 "simplex" -0.34998596 6.2772 3.88 3.8703 3.647 6.362832 0.64996 4.037893 0.10215 0.634606
"487" "A2" 5.993961 53 "M" "English" "incorrect" "nonword" "incorrect" "hedgehog" 3.637586 0 1.0986123 8 "animal" 21 16 0 "simplex" 0.25782911 6.5924 3.32 3.592 3.2545 2.718969 0.64996 3.325324 0.239047 1.223009
"488" "A2" 6.167516 54 "M" "English" "correct" "word" "incorrect" "spider" 4.844187 0.6931472 1.0986123 6 "animal" 73 53 0.5763 "simplex" 0.31508105 6.3401 5.04 3.4381 3.1251 6.017389 1.13743 23.039745 0.189024 3.828861
"489" "A2" 6.013715 55 "M" "English" "correct" "word" "correct" "squid" 3.970292 0 1.0986123 5 "animal" 23 29 0 "simplex" -0.22314355 6.4089 3.08 3.5957 3.2684 1.64921 0.16249 1.187616 0.098526 0.720112
"490" "A2" 6.161207 57 "M" "English" "correct" "nonword" "correct" "mustard" 4.442651 0 1.3862944 7 "plant" 84 0 0 "simplex" 4.44265126 6.4177 4 1.8218 1.4082 4.524185 4.549721 6.175602 1.005644 1.36502
"491" "A2" 6.146329 59 "M" "English" "correct" "nonword" "correct" "radish" 3.044522 0.6931472 1.3862944 6 "plant" 11 9 0.9403 "simplex" 0.18232156 6.4133 3.12 1.3226 0.8244 1.961223 0 0 0 0
"492" "A2" 6.2106 63 "M" "English" "correct" "nonword" "incorrect" "lemon" 5.631212 0.6931472 1.6094379 5 "plant" 233 45 0.6285 "simplex" 1.62667972 6.29 5.04 1.8119 1.4315 11.834199 3.087311 22.089653 0.26088 1.866595
"493" "A2" 6.163315 65 "M" "English" "correct" "nonword" "correct" "chicken" 6.59987 1.0986123 1.7917595 7 "animal" 534 200 0.0798 "simplex" 0.97896184 6.3028 5.68 4.3832 4.1964 17.651009 7.312052 100.709814 0.414257 5.705612
"494" "A2" 6.831954 66 "M" "English" "correct" "word" "correct" "lion" 6.098074 1.0986123 1.0986123 4 "animal" 152 292 0.234 "simplex" -0.64973469 6.3014 4.04 4.2029 4.0036 12.502798 4.874701 3.80037 0.389889 0.303962
"495" "A2" 6.154858 67 "M" "English" "incorrect" "word" "correct" "paprika" 2.484907 0 1.0986123 7 "plant" 11 0 0 "simplex" 2.48490665 6.4825 3.44 2.0858 1.6507 0.456876 0 0.475046 0 1.039771
"496" "A2" 6.2106 68 "M" "English" "correct" "word" "incorrect" "moose" 2.70805 0 0.6931472 5 "animal" 7 7 0 "simplex" 0 6.3349 2.48 3.8893 3.5673 0.668599 0 2.375231 0 3.552551
"497" "A2" 6.22059 71 "M" "English" "correct" "nonword" "correct" "cherry" 4.997212 0.6931472 1.6094379 6 "plant" 83 49 0.4754 "simplex" 0.51879379 6.3426 3.88 1.6278 1.2081 5.71652 3.249801 12.588727 0.568493 2.202166
"498" "A2" 6.253829 72 "M" "English" "correct" "word" "correct" "reindeer" 4.043051 0 0.6931472 8 "animal" 28 28 0 "complex" 0 6.4974 2.28 3.7494 3.4517 1.537777 0.97494 0.950093 0.633993 0.617835
"499" "A2" 6.082219 73 "M" "English" "correct" "word" "correct" "owl" 4.859812 1.3862944 0.6931472 3 "animal" 54 74 0.7912 "simplex" -0.31015493 6.3582 3.12 3.4758 3.1806 12.057065 0 6.175602 0 0.512198
"500" "A2" 6.289716 74 "M" "English" "correct" "word" "correct" "asparagus" 3.663562 0 1.0986123 9 "plant" 19 19 0 "simplex" 0 6.4939 3.68 1.866 1.4424 1.281481 0 0 0 0
"501" "A2" 6.068426 79 "M" "English" "correct" "nonword" "correct" "mouse" 5.805135 1.9459101 1.6094379 5 "animal" 146 184 0.4497 "simplex" -0.22992324 6.3261 4.44 3.7255 3.4551 18.297321 18.848846 10.688542 1.030142 0.584159
"502" "A2" 6.152733 83 "M" "English" "correct" "nonword" "correct" "kiwi" 3.044522 0 1.3862944 4 "plant" 11 9 0 "simplex" 0.18232156 6.3173 5.28 1.8289 1.3752 2.139516 0 1.187616 0 0.555086
"503" "A2" 6.192362 84 "M" "English" "correct" "word" "correct" "bee" 5.700444 1.7917595 1.0986123 3 "animal" 118 180 0.8521 "simplex" -0.41937354 6.2978 4.56 3.6399 3.3756 5.281931 1.6249 5.938079 0.307634 1.124225
"504" "A2" 6.721426 85 "M" "English" "correct" "word" "correct" "leek" 3.332205 0 1.0986123 4 "plant" 5 22 0 "simplex" -1.34373475 6.42 3.68 1.8898 1.459 0.846892 0.16249 2.375231 0.191866 2.804646
"505" "A2" 6.222576 87 "M" "English" "correct" "nonword" "correct" "woodpecker" 2.890372 0 0.6931472 10 "animal" 11 6 0 "complex" 0.5389965 6.5041 2.04 3.8417 3.52 1.025185 0.48747 0 0.475495 0
"506" "A2" 6.154858 90 "M" "English" "correct" "nonword" "correct" "shark" 5.880533 0.6931472 1.7917595 5 "animal" 246 111 0.0277 "simplex" 0.79088947 6.3179 3.76 3.9283 3.6724 3.231561 0.32498 3.80037 0.100564 1.176017
"507" "A2" 6.53814 91 "M" "English" "correct" "word" "correct" "vulture" 4.248495 0 1.0986123 7 "animal" 21 48 0 "simplex" -0.80077784 6.6213 2.28 3.6219 3.3054 1.270338 0.32498 0.237523 0.255822 0.186976
"508" "A2" 6.025866 92 "M" "English" "correct" "word" "correct" "avocado" 3.433987 0 1.3862944 7 "plant" 24 6 0 "simplex" 1.27296568 6.4032 4.12 1.7737 1.3256 0.936038 0.81245 0.950093 0.867967 1.015015
"509" "A2" 5.942799 93 "M" "English" "correct" "word" "correct" "crocodile" 4.615121 0 0.6931472 9 "animal" 35 65 0 "simplex" -0.6061358 6.4433 3.36 3.8372 3.5655 2.574105 2.112371 2.850278 0.820623 1.107289
"510" "A2" 6.086775 94 "M" "English" "correct" "word" "correct" "frog" 5.129899 2.0794415 1.3862944 4 "animal" 74 94 1.0456 "simplex" -0.23638878 6.3335 3.76 3.1746 2.8385 5.059064 1.46241 10.451018 0.289067 2.065801
"511" "A2" 6.20859 95 "M" "English" "correct" "word" "correct" "cucumber" 4.454347 0 1.0986123 8 "plant" 54 31 0 "simplex" 0.54159728 6.4393 4.48 1.9295 1.5357 2.11723 0.64996 4.037893 0.306986 1.907159
"512" "A2" 6.152733 99 "M" "English" "correct" "nonword" "correct" "eagle" 5.117994 1.0986123 1.7917595 5 "animal" 129 37 0.7235 "simplex" 1.22994829 6.3692 2.88 3.1948 2.8461 12.246502 1.29992 1.900185 0.106146 0.155161
"513" "A2" 6.22059 100 "M" "English" "correct" "word" "correct" "tomato" 5.545177 0 1.0986123 6 "plant" 123 132 0 "simplex" -0.07006756 6.3422 5.44 2.2952 1.9716 7.120577 0.48747 20.426991 0.068459 2.868727
"514" "A2" 6.280396 101 "M" "English" "correct" "word" "correct" "broccoli" 2.833213 0 1.0986123 8 "plant" 16 0 0 "simplex" 2.83321334 6.4157 4.96 1.9817 1.5459 1.170048 0.64996 5.938079 0.555499 5.075073
"515" "A2" 6.159095 103 "M" "English" "correct" "nonword" "correct" "eggplant" 1.791759 0 1.0986123 8 "plant" 4 1 0 "complex" 0.91629073 6.395 3.16 2.3908 1.9674 0.022287 0 0 0 0
"516" "A2" 5.993961 105 "M" "English" "correct" "word" "correct" "strawberry" 4.75359 0 1.3862944 10 "plant" 50 65 0 "complex" -0.25782911 6.3475 5.04 1.8922 1.4951 2.919548 0.64996 18.526805 0.222624 6.345778
"517" "A2" 6.641182 107 "M" "English" "correct" "nonword" "correct" "stork" 3.044522 0 0.6931472 5 "animal" 13 7 0 "simplex" 0.55961579 6.5239 2 3.8085 3.4878 0.724315 0 0.475046 0 0.655856
"518" "A2" 6.248043 108 "M" "English" "correct" "word" "correct" "blackberry" 4.060443 0.6931472 1.3862944 10 "plant" 26 31 0.3492 "complex" -0.16989904 6.3959 3.28 1.5831 1.1365 1.270338 0.16249 1.187616 0.127911 0.934882
"519" "A2" 6.230481 110 "M" "English" "correct" "nonword" "correct" "clove" 3.663562 0 1.6094379 5 "plant" 16 22 0 "simplex" -0.30228087 6.4277 3.12 1.6785 1.2208 1.482061 0 0.237523 0 0.160265
"520" "A2" 6.163315 111 "M" "English" "correct" "word" "correct" "bunny" 3.332205 0 1.0986123 5 "animal" 19 8 0 "simplex" 0.7985077 6.4092 3.4 3.615 3.271 3.276134 0.16249 10.451018 0.049598 3.190046
"521" "A2" 5.966147 112 "M" "English" "correct" "word" "correct" "horse" 7.77191 3.3322045 2.0794415 5 "animal" 1518 854 1.0925 "simplex" 0.57470603 6.3364 4.84 4.8195 4.7138 79.173243 62.071199 59.855833 0.783992 0.756011
"522" "A2" 6.434547 115 "M" "English" "correct" "nonword" "correct" "mole" 4.60517 1.0986123 1.9459101 4 "animal" 69 30 0.6968 "simplex" 0.81450804 6.415 2.4 2.9999 2.6112 5.738806 4.062251 2.850278 0.707856 0.496667
"523" "A2" 6.077642 116 "M" "English" "correct" "word" "correct" "ant" 5.347108 1.3862944 1.0986123 3 "animal" 69 140 0.562 "simplex" -0.70026465 6.3231 3.6 3.6275 3.3489 4.591045 0.16249 3.80037 0.035393 0.827779
"524" "A2" 5.902633 117 "M" "English" "correct" "word" "correct" "goose" 5.267858 1.7917595 1.3862944 5 "animal" 103 85 1.4565 "simplex" 0.1900436 6.3514 3.4 3.0071 2.6612 4.401609 1.949881 1.900185 0.442993 0.431702
"525" "A2" 6.249975 122 "M" "English" "correct" "nonword" "correct" "pear" 4.727388 0 1.0986123 4 "plant" 44 68 0 "simplex" -0.42744401 6.3353 4.52 1.9908 1.6114 2.05037 1.46241 7.363218 0.713242 3.591166
"526" "A2" 6.095825 123 "M" "English" "correct" "word" "correct" "snake" 6.120297 1.6094379 1.9459101 5 "animal" 251 161 0.8809 "simplex" 0.44183275 6.3113 3.52 3.5577 3.2734 7.109434 2.599841 4.275417 0.365689 0.601372
"527" "A2" 6.169611 125 "M" "English" "correct" "nonword" "correct" "bat" 5.918894 2.1972246 2.3025851 3 "animal" 155 103 2.2641 "simplex" 0.40546511 6.329 3.2 2.5589 2.1666 9.427243 5.199682 6.888171 0.551559 0.730667
"528" "A2" 6.214608 126 "M" "English" "correct" "word" "correct" "wasp" 4.682131 1.3862944 0.6931472 4 "animal" 43 64 0.4621 "simplex" -0.39019764 6.5057 3.36 3.6045 3.3145 2.551819 1.46241 0.712569 0.573086 0.27924
"529" "A2" 6.345636 134 "M" "English" "correct" "nonword" "correct" "monkey" 5.783825 0 1.6094379 6 "animal" 162 162 0 "simplex" 0 6.3075 4 3.9559 3.7049 5.348791 2.924821 14.963958 0.546819 2.797634
"530" "A2" 6.363028 135 "M" "English" "correct" "word" "correct" "banana" 5.023881 0 1.0986123 6 "plant" 74 77 0 "simplex" -0.03922071 6.3178 5.68 2.0802 1.7189 4.524185 1.29992 23.039745 0.287327 5.092573
"531" "A2" 6.169611 141 "M" "English" "correct" "nonword" "correct" "potato" 6.461468 0 1.0986123 6 "plant" 206 433 0 "simplex" -0.74032574 6.3833 5.8 2.8516 2.6131 7.934039 8.286993 25.890023 1.044486 3.263158
"532" "A2" 6.278521 142 "M" "English" "correct" "word" "correct" "carrot" 4.976734 0.6931472 1.6094379 6 "plant" 45 99 0.0594 "simplex" -0.77652879 6.35 5.48 1.8449 1.4437 3.398711 2.437351 14.963958 0.71714 4.402834
"533" "A2" 6.115892 143 "M" "English" "correct" "word" "correct" "orange" 6.378426 1.3862944 1.7917595 6 "plant" 258 93 1.0996 "simplex" 1.01353328 6.285 5.6 1.9453 1.5999 16.68154 6.337112 56.530509 0.379888 3.388806
"534" "A2" 6.285998 146 "M" "English" "correct" "nonword" "correct" "pineapple" 3.988984 0 1.0986123 9 "plant" 44 9 0 "complex" 1.5040774 6.4022 4.4 1.8716 1.4581 2.596392 0.64996 6.650648 0.250332 2.561496
"535" "A2" 6.251904 148 "M" "English" "correct" "nonword" "correct" "sheep" 6.577861 2.3025851 1.3862944 5 "animal" 359 359 1.5565 "simplex" 0 6.2984 5.2 3.7201 3.4881 29.752647 43.872313 22.327176 1.474568 0.750427
"536" "A2" 6.175867 149 "M" "English" "correct" "word" "correct" "melon" 4.127134 1.0986123 1.0986123 5 "plant" 38 23 0.5392 "simplex" 0.48550782 6.3712 3.56 1.5924 1.1586 2.15066 0.16249 1.187616 0.075554 0.55221
"537" "A2" 6.113682 150 "M" "English" "correct" "word" "correct" "butterfly" 5.214936 0 1.0986123 9 "animal" 88 95 0 "complex" -0.07571182 6.4062 4.08 3.8757 3.6141 6.719418 0.64996 5.463032 0.096729 0.813022
"538" "A2" 6.284134 152 "M" "English" "correct" "nonword" "correct" "magpie" 2.995732 0 1.0986123 6 "animal" 13 6 0 "simplex" 0.69314718 6.4871 2.68 3.6695 3.3214 1.092045 0.32498 1.187616 0.297589 1.087516
"539" "A2" 6.013715 153 "M" "English" "correct" "word" "correct" "blueberry" 2.484907 0 1.0986123 9 "plant" 7 4 0 "complex" 0.47000363 6.3549 3.76 2.0858 1.6507 0.122576 0 0.237523 0 1.937755
"540" "A2" 6.075346 154 "M" "English" "correct" "word" "correct" "peanut" 4.59512 0.6931472 1.6094379 6 "plant" 49 49 0.4719 "complex" 0 6.2664 4.68 1.517 1.074 1.214621 0 5.938079 0 4.888832
"541" "A2" 6.104793 156 "M" "English" "correct" "nonword" "correct" "mushroom" 5.537334 0.6931472 1.9459101 8 "plant" 90 137 0.4777 "simplex" -0.41639418 6.3365 4.8 1.7232 1.3199 3.264991 0.64996 6.413125 0.19907 1.964209
"542" "A2" 5.828946 159 "M" "English" "incorrect" "nonword" "correct" "pig" 6.660575 2.7725887 2.3025851 3 "animal" 320 460 1.6313 "simplex" -0.36195692 6.2783 4.48 3.4075 3.12 12.636518 10.886833 17.576713 0.861537 1.390946
"543" "A2" 6.522093 160 "M" "English" "correct" "word" "incorrect" "squirrel" 4.70953 0 1.0986123 8 "animal" 63 47 0 "simplex" 0.28768207 6.4491 2.8 3.7114 3.4178 2.406956 0.81245 1.425139 0.337543 0.592092
"544" "A2" 6.23637 163 "M" "English" "correct" "nonword" "correct" "elephant" 6.063785 0.6931472 1.0986123 8 "animal" 113 316 0.213 "simplex" -1.02270333 6.322 3.88 4.1927 3.9911 8.691785 8.611973 7.363218 0.990818 0.847147
"545" "A2" 6.489205 165 "M" "English" "correct" "nonword" "correct" "swan" 4.962845 1.3862944 1.3862944 4 "animal" 88 46 0.7769 "simplex" 0.63848877 6.3781 3 3.2612 2.9268 5.281931 2.599841 2.850278 0.492214 0.539628
"546" "A2" 6.700731 166 "M" "English" "correct" "word" "correct" "gherkin" 2.079442 0 1.0986123 7 "plant" 4 3 0 "simplex" 0.22314355 6.5161 3.16 2.2484 1.8185 0.111433 0.16249 0.237523 1.458184 2.131531
"547" "A2" 6.466145 169 "M" "English" "correct" "nonword" "correct" "tortoise" 4.624973 0 0.6931472 8 "animal" 71 30 0.3463 "simplex" 0.84267891 6.5318 2.52 3.653 3.3654 1.78293 0.48747 1.425139 0.27341 0.799324
"548" "A2" 6.257668 171 "M" "English" "correct" "nonword" "correct" "beetroot" 3.555348 0 1.0986123 8 "plant" 15 19 0 "complex" -0.22314355 6.4468 3.88 1.8705 1.4442 0.635169 0.16249 0.475046 0.255822 0.747906
"549" "A2" 6.315358 173 "M" "English" "correct" "nonword" "correct" "almond" 4.204693 0 1.0986123 6 "plant" 24 42 0 "simplex" -0.54232429 6.3908 3.72 1.8912 1.486 3.075555 0.16249 1.425139 0.052833 0.463376
"550" "A2" 6.308098 174 "M" "English" "correct" "word" "correct" "fox" 5.652489 1.7917595 1.9459101 3 "animal" 177 100 1.2335 "simplex" 0.56666303 6.3451 3.24 3.0987 2.7558 10.028982 83.194905 5.938079 8.295449 0.592092
"551" "A2" 6.23637 176 "M" "English" "correct" "nonword" "correct" "grape" 5.192957 1.0986123 1.0986123 5 "plant" 37 142 1.1273 "simplex" -1.32525847 6.3036 4.68 1.5349 1.1317 2.975265 0.64996 1.662662 0.218455 0.558828
"552" "A2" 6.198479 180 "M" "English" "correct" "nonword" "correct" "cat" 7.086738 2.7725887 2.1972246 3 "animal" 739 456 0.6845 "simplex" 0.4819668 6.2675 5.64 4.3152 4.1296 36.940084 18.523866 110.923309 0.501457 3.00279
"553" "A2" 6.12905 184 "M" "English" "correct" "nonword" "correct" "apple" 6.304449 1.0986123 1.0986123 5 "plant" 315 231 0.496 "simplex" 0.30900484 6.2452 5.84 2.473 2.1948 24.54872 7.799522 40.853981 0.317716 1.6642
"712" "A3" 6.410175 28 "F" "Other" "correct" "nonword" "correct" "strawberry" 4.75359 0 1.3862944 10 "plant" 50 65 0 "complex" -0.25782911 6.3475 5.04 1.8922 1.4951 2.919548 0.64996 18.526805 0.222624 6.345778
"713" "A3" 6.315358 29 "F" "Other" "correct" "word" "correct" "crocodile" 4.615121 0 0.6931472 9 "animal" 35 65 0 "simplex" -0.6061358 6.4433 3.36 3.8372 3.5655 2.574105 2.112371 2.850278 0.820623 1.107289
"714" "A3" 6.385194 32 "F" "Other" "correct" "nonword" "correct" "cherry" 4.997212 0.6931472 1.6094379 6 "plant" 83 49 0.4754 "simplex" 0.51879379 6.3426 3.88 1.6278 1.2081 5.71652 3.249801 12.588727 0.568493 2.202166
"715" "A3" 6.35437 34 "F" "Other" "correct" "nonword" "correct" "bunny" 3.332205 0 1.0986123 5 "animal" 19 8 0 "simplex" 0.7985077 6.4092 3.4 3.615 3.271 3.276134 0.16249 10.451018 0.049598 3.190046
"716" "A3" 6.716595 35 "F" "Other" "correct" "word" "correct" "paprika" 2.484907 0 1.0986123 7 "plant" 11 0 0 "simplex" 2.48490665 6.4825 3.44 2.0858 1.6507 0.456876 0 0.475046 0 1.039771
"717" "A3" 6.261492 36 "F" "Other" "correct" "word" "correct" "lemon" 5.631212 0.6931472 1.6094379 5 "plant" 233 45 0.6285 "simplex" 1.62667972 6.29 5.04 1.8119 1.4315 11.834199 3.087311 22.089653 0.26088 1.866595
"718" "A3" 6.304449 40 "F" "Other" "correct" "nonword" "correct" "clove" 3.663562 0 1.6094379 5 "plant" 16 22 0 "simplex" -0.30228087 6.4277 3.12 1.6785 1.2208 1.482061 0 0.237523 0 0.160265
"719" "A3" 6.408529 41 "F" "Other" "correct" "word" "correct" "ant" 5.347108 1.3862944 1.0986123 3 "animal" 69 140 0.562 "simplex" -0.70026465 6.3231 3.6 3.6275 3.3489 4.591045 0.16249 3.80037 0.035393 0.827779
"720" "A3" 6.331502 44 "F" "Other" "correct" "nonword" "incorrect" "pig" 6.660575 2.7725887 2.3025851 3 "animal" 320 460 1.6313 "simplex" -0.36195692 6.2783 4.48 3.4075 3.12 12.636518 10.886833 17.576713 0.861537 1.390946
"721" "A3" 6.401917 46 "F" "Other" "correct" "nonword" "correct" "shark" 5.880533 0.6931472 1.7917595 5 "animal" 246 111 0.0277 "simplex" 0.79088947 6.3179 3.76 3.9283 3.6724 3.231561 0.32498 3.80037 0.100564 1.176017
"722" "A3" 6.313548 48 "F" "Other" "correct" "nonword" "correct" "kiwi" 3.044522 0 1.3862944 4 "plant" 11 9 0 "simplex" 0.18232156 6.3173 5.28 1.8289 1.3752 2.139516 0 1.187616 0 0.555086
"723" "A3" 6.483107 50 "F" "Other" "correct" "nonword" "correct" "owl" 4.859812 1.3862944 0.6931472 3 "animal" 54 74 0.7912 "simplex" -0.31015493 6.3582 3.12 3.4758 3.1806 12.057065 0 6.175602 0 0.512198
"724" "A3" 6.327937 51 "F" "Other" "correct" "word" "correct" "avocado" 3.433987 0 1.3862944 7 "plant" 24 6 0 "simplex" 1.27296568 6.4032 4.12 1.7737 1.3256 0.936038 0.81245 0.950093 0.867967 1.015015
"725" "A3" 6.234411 52 "F" "Other" "correct" "word" "correct" "fox" 5.652489 1.7917595 1.9459101 3 "animal" 177 100 1.2335 "simplex" 0.56666303 6.3451 3.24 3.0987 2.7558 10.028982 83.194905 5.938079 8.295449 0.592092
"726" "A3" 6.36647 55 "F" "Other" "correct" "nonword" "correct" "goat" 6.228511 1.9459101 1.0986123 4 "animal" 209 297 1.0093 "simplex" -0.34998596 6.2772 3.88 3.8703 3.647 6.362832 0.64996 4.037893 0.10215 0.634606
"727" "A3" 6.327937 56 "F" "Other" "correct" "word" "correct" "walnut" 4.49981 0 1.3862944 6 "plant" 70 19 0 "simplex" 1.2669476 6.4226 3.92 1.8327 1.422 3.454427 0.64996 4.987986 0.188153 1.44394
"728" "A3" 6.472346 57 "F" "Other" "correct" "word" "correct" "tortoise" 4.624973 0 0.6931472 8 "animal" 71 30 0.3463 "simplex" 0.84267891 6.5318 2.52 3.653 3.3654 1.78293 0.48747 1.425139 0.27341 0.799324
"729" "A3" 6.376727 58 "F" "Other" "correct" "word" "correct" "goose" 5.267858 1.7917595 1.3862944 5 "animal" 103 85 1.4565 "simplex" 0.1900436 6.3514 3.4 3.0071 2.6612 4.401609 1.949881 1.900185 0.442993 0.431702
"730" "A3" 6.383507 61 "F" "Other" "correct" "nonword" "incorrect" "eggplant" 1.791759 0 1.0986123 8 "plant" 4 1 0 "complex" 0.91629073 6.395 3.16 2.3908 1.9674 0.022287 0 0 0 0
"731" "A3" 6.36647 64 "F" "Other" "correct" "nonword" "correct" "moose" 2.70805 0 0.6931472 5 "animal" 7 7 0 "simplex" 0 6.3349 2.48 3.8893 3.5673 0.668599 0 2.375231 0 3.552551
"732" "A3" 6.510258 65 "F" "Other" "correct" "word" "correct" "gull" 4.418841 1.6094379 1.0986123 4 "animal" 23 59 1.7296 "simplex" -0.91629073 6.4384 2.6 2.717 2.3265 1.894363 0.32498 0.237523 0.171551 0.125384
"733" "A3" 6.253829 67 "F" "Other" "correct" "nonword" "correct" "eagle" 5.117994 1.0986123 1.7917595 5 "animal" 129 37 0.7235 "simplex" 1.22994829 6.3692 2.88 3.1948 2.8461 12.246502 1.29992 1.900185 0.106146 0.155161
"734" "A3" 6.263398 69 "F" "Other" "correct" "nonword" "incorrect" "stork" 3.044522 0 0.6931472 5 "animal" 13 7 0 "simplex" 0.55961579 6.5239 2 3.8085 3.4878 0.724315 0 0.475046 0 0.655856
"735" "A3" 6.401917 70 "F" "Other" "correct" "word" "correct" "blueberry" 2.484907 0 1.0986123 9 "plant" 7 4 0 "complex" 0.47000363 6.3549 3.76 2.0858 1.6507 0.122576 0 0.237523 0 1.937755
"736" "A3" 6.280396 71 "F" "Other" "correct" "word" "correct" "squid" 3.970292 0 1.0986123 5 "animal" 23 29 0 "simplex" -0.22314355 6.4089 3.08 3.5957 3.2684 1.64921 0.16249 1.187616 0.098526 0.720112
"737" "A3" 6.44572 72 "F" "Other" "correct" "word" "correct" "asparagus" 3.663562 0 1.0986123 9 "plant" 19 19 0 "simplex" 0 6.4939 3.68 1.866 1.4424 1.281481 0 0 0 0
"738" "A3" 6.317165 73 "F" "Other" "correct" "word" "correct" "carrot" 4.976734 0.6931472 1.6094379 6 "plant" 45 99 0.0594 "simplex" -0.77652879 6.35 5.48 1.8449 1.4437 3.398711 2.437351 14.963958 0.71714 4.402834
"739" "A3" 6.356108 74 "F" "Other" "correct" "word" "correct" "lettuce" 4.812184 0 1.0986123 7 "plant" 115 7 0 "simplex" 2.67414865 6.3753 5.12 2.0139 1.6395 3.721867 0.97494 7.600741 0.261949 2.042185
"740" "A3" 6.238325 75 "F" "Other" "correct" "word" "correct" "snake" 6.120297 1.6094379 1.9459101 5 "animal" 251 161 0.8809 "simplex" 0.44183275 6.3113 3.52 3.5577 3.2734 7.109434 2.599841 4.275417 0.365689 0.601372
"741" "A3" 6.804615 79 "F" "Other" "correct" "nonword" "incorrect" "hedgehog" 3.637586 0 1.0986123 8 "animal" 21 16 0 "simplex" 0.25782911 6.5924 3.32 3.592 3.2545 2.718969 0.64996 3.325324 0.239047 1.223009
"742" "A3" 6.376727 80 "F" "Other" "correct" "word" "correct" "butterfly" 5.214936 0 1.0986123 9 "animal" 88 95 0 "complex" -0.07571182 6.4062 4.08 3.8757 3.6141 6.719418 0.64996 5.463032 0.096729 0.813022
"743" "A3" 6.240276 82 "F" "Other" "correct" "nonword" "correct" "beaver" 3.951244 0 2.0794415 6 "animal" 37 14 0 "simplex" 0.92953596 6.4199 2.2 3.2347 2.8413 1.482061 0 0 0 0
"744" "A3" 6.194405 83 "F" "Other" "correct" "word" "correct" "banana" 5.023881 0 1.0986123 6 "plant" 74 77 0 "simplex" -0.03922071 6.3178 5.68 2.0802 1.7189 4.524185 1.29992 23.039745 0.287327 5.092573
"745" "A3" 6.447306 85 "F" "Other" "correct" "nonword" "correct" "cat" 7.086738 2.7725887 2.1972246 3 "animal" 739 456 0.6845 "simplex" 0.4819668 6.2675 5.64 4.3152 4.1296 36.940084 18.523866 110.923309 0.501457 3.00279
"746" "A3" 6.359574 89 "F" "Other" "correct" "nonword" "correct" "elephant" 6.063785 0.6931472 1.0986123 8 "animal" 113 316 0.213 "simplex" -1.02270333 6.322 3.88 4.1927 3.9911 8.691785 8.611973 7.363218 0.990818 0.847147
"747" "A3" 6.437752 90 "F" "Other" "correct" "word" "correct" "peanut" 4.59512 0.6931472 1.6094379 6 "plant" 49 49 0.4719 "complex" 0 6.2664 4.68 1.517 1.074 1.214621 0 5.938079 0 4.888832
"748" "A3" 6.302619 93 "F" "Other" "correct" "nonword" "correct" "cucumber" 4.454347 0 1.0986123 8 "plant" 54 31 0 "simplex" 0.54159728 6.4393 4.48 1.9295 1.5357 2.11723 0.64996 4.037893 0.306986 1.907159
"749" "A3" 6.263398 96 "F" "Other" "correct" "nonword" "correct" "chicken" 6.59987 1.0986123 1.7917595 7 "animal" 534 200 0.0798 "simplex" 0.97896184 6.3028 5.68 4.3832 4.1964 17.651009 7.312052 100.709814 0.414257 5.705612
"750" "A3" 6.251904 98 "F" "Other" "correct" "nonword" "correct" "mustard" 4.442651 0 1.3862944 7 "plant" 84 0 0 "simplex" 4.44265126 6.4177 4 1.8218 1.4082 4.524185 4.549721 6.175602 1.005644 1.36502
"751" "A3" 6.33328 100 "F" "Other" "correct" "nonword" "incorrect" "apple" 6.304449 1.0986123 1.0986123 5 "plant" 315 231 0.496 "simplex" 0.30900484 6.2452 5.84 2.473 2.1948 24.54872 7.799522 40.853981 0.317716 1.6642
"752" "A3" 6.171701 105 "F" "Other" "correct" "word" "correct" "monkey" 5.783825 0 1.6094379 6 "animal" 162 162 0 "simplex" 0 6.3075 4 3.9559 3.7049 5.348791 2.924821 14.963958 0.546819 2.797634
"753" "A3" 6.289716 106 "F" "Other" "correct" "word" "correct" "melon" 4.127134 1.0986123 1.0986123 5 "plant" 38 23 0.5392 "simplex" 0.48550782 6.3712 3.56 1.5924 1.1586 2.15066 0.16249 1.187616 0.075554 0.55221
"754" "A3" 6.25575 108 "F" "Other" "correct" "nonword" "correct" "leek" 3.332205 0 1.0986123 4 "plant" 5 22 0 "simplex" -1.34373475 6.42 3.68 1.8898 1.459 0.846892 0.16249 2.375231 0.191866 2.804646
"755" "A3" 6.253829 109 "F" "Other" "correct" "word" "correct" "camel" 6.109248 0.6931472 0.6931472 5 "animal" 146 303 0.1012 "simplex" -0.72659511 6.386 2.72 4.4303 4.2654 3.320707 0.81245 3.087801 0.244662 0.929862
"756" "A3" 6.487684 111 "F" "Other" "correct" "nonword" "incorrect" "woodpecker" 2.890372 0 0.6931472 10 "animal" 11 6 0 "complex" 0.5389965 6.5041 2.04 3.8417 3.52 1.025185 0.48747 0 0.475495 0
"757" "A3" 6.452049 115 "F" "Other" "correct" "nonword" "correct" "reindeer" 4.043051 0 0.6931472 8 "animal" 28 28 0 "complex" 0 6.4974 2.28 3.7494 3.4517 1.537777 0.97494 0.950093 0.633993 0.617835
"758" "A3" 6.405228 116 "F" "Other" "correct" "word" "correct" "donkey" 5.541264 0 1.0986123 6 "animal" 162 92 0.037 "simplex" 0.56115071 6.3328 3.48 3.9986 3.7598 5.081351 3.737271 6.650648 0.735488 1.308835
"759" "A3" 6.242223 120 "F" "Other" "correct" "nonword" "correct" "orange" 6.378426 1.3862944 1.7917595 6 "plant" 258 93 1.0996 "simplex" 1.01353328 6.285 5.6 1.9453 1.5999 16.68154 6.337112 56.530509 0.379888 3.388806
"760" "A3" 6.437752 122 "F" "Other" "correct" "nonword" "correct" "dolphin" 4.007333 0 1.0986123 7 "animal" 24 30 0 "simplex" -0.21511138 6.3944 3.88 3.598 3.272 8.067759 0.32498 0.712569 0.040281 0.088323
"761" "A3" 6.375025 124 "F" "Other" "correct" "nonword" "correct" "blackberry" 4.060443 0.6931472 1.3862944 10 "plant" 26 31 0.3492 "complex" -0.16989904 6.3959 3.28 1.5831 1.1365 1.270338 0.16249 1.187616 0.127911 0.934882
"762" "A3" 6.475433 126 "F" "Other" "correct" "nonword" "correct" "mole" 4.60517 1.0986123 1.9459101 4 "animal" 69 30 0.6968 "simplex" 0.81450804 6.415 2.4 2.9999 2.6112 5.738806 4.062251 2.850278 0.707856 0.496667
"763" "A3" 6.452049 132 "F" "Other" "correct" "nonword" "correct" "bat" 5.918894 2.1972246 2.3025851 3 "animal" 155 103 2.2641 "simplex" 0.40546511 6.329 3.2 2.5589 2.1666 9.427243 5.199682 6.888171 0.551559 0.730667
"764" "A3" 6.415097 133 "F" "Other" "correct" "word" "correct" "mouse" 5.805135 1.9459101 1.6094379 5 "animal" 146 184 0.4497 "simplex" -0.22992324 6.3261 4.44 3.7255 3.4551 18.297321 18.848846 10.688542 1.030142 0.584159
"765" "A3" 6.378426 134 "F" "Other" "correct" "word" "correct" "whale" 5.298317 1.0986123 1.3862944 5 "animal" 104 95 0.4994 "simplex" 0.08961216 6.3548 3.96 3.535 3.2365 5.872526 1.949881 1.900185 0.332034 0.323572
"766" "A3" 6.444131 136 "F" "Other" "correct" "nonword" "correct" "broccoli" 2.833213 0 1.0986123 8 "plant" 16 0 0 "simplex" 2.83321334 6.4157 4.96 1.9817 1.5459 1.170048 0.64996 5.938079 0.555499 5.075073
"767" "A3" 6.361302 138 "F" "Other" "correct" "nonword" "correct" "frog" 5.129899 2.0794415 1.3862944 4 "animal" 74 94 1.0456 "simplex" -0.23638878 6.3335 3.76 3.1746 2.8385 5.059064 1.46241 10.451018 0.289067 2.065801
"768" "A3" 6.55108 139 "F" "Other" "correct" "word" "correct" "tomato" 5.545177 0 1.0986123 6 "plant" 123 132 0 "simplex" -0.07006756 6.3422 5.44 2.2952 1.9716 7.120577 0.48747 20.426991 0.068459 2.868727
"769" "A3" 7.044033 143 "F" "Other" "correct" "nonword" "correct" "almond" 4.204693 0 1.0986123 6 "plant" 24 42 0 "simplex" -0.54232429 6.3908 3.72 1.8912 1.486 3.075555 0.16249 1.425139 0.052833 0.463376
"770" "A3" 6.459904 148 "F" "Other" "correct" "nonword" "correct" "vulture" 4.248495 0 1.0986123 7 "animal" 21 48 0 "simplex" -0.80077784 6.6213 2.28 3.6219 3.3054 1.270338 0.32498 0.237523 0.255822 0.186976
"771" "A3" 6.410175 149 "F" "Other" "correct" "word" "correct" "mushroom" 5.537334 0.6931472 1.9459101 8 "plant" 90 137 0.4777 "simplex" -0.41639418 6.3365 4.8 1.7232 1.3199 3.264991 0.64996 6.413125 0.19907 1.964209
"772" "A3" 6.361302 150 "F" "Other" "correct" "word" "correct" "lion" 6.098074 1.0986123 1.0986123 4 "animal" 152 292 0.234 "simplex" -0.64973469 6.3014 4.04 4.2029 4.0036 12.502798 4.874701 3.80037 0.389889 0.303962
"773" "A3" 6.242223 154 "F" "Other" "correct" "nonword" "correct" "dog" 7.667626 3.1354942 2.0794415 3 "animal" 1233 828 1.2129 "simplex" 0.39779605 6.2956 6.04 4.6429 4.5167 74.838494 50.859385 241.56104 0.679589 3.227765
"774" "A3" 6.458338 156 "F" "Other" "correct" "nonword" "correct" "pear" 4.727388 0 1.0986123 4 "plant" 44 68 0 "simplex" -0.42744401 6.3353 4.52 1.9908 1.6114 2.05037 1.46241 7.363218 0.713242 3.591166
"775" "A3" 7.132498 157 "F" "Other" "correct" "word" "correct" "radish" 3.044522 0.6931472 1.3862944 6 "plant" 11 9 0.9403 "simplex" 0.18232156 6.4133 3.12 1.3226 0.8244 1.961223 0 0 0 0
"776" "A3" 6.388561 158 "F" "Other" "correct" "word" "correct" "olive" 5.587249 1.0986123 1.9459101 5 "plant" 160 78 0.5684 "simplex" 0.71195651 6.295 4.12 1.6987 1.2952 3.877873 0 2.850278 0 0.735011
"777" "A3" 6.419995 160 "F" "Other" "correct" "nonword" "correct" "bee" 5.700444 1.7917595 1.0986123 3 "animal" 118 180 0.8521 "simplex" -0.41937354 6.2978 4.56 3.6399 3.3756 5.281931 1.6249 5.938079 0.307634 1.124225
"778" "A3" 6.43294 161 "F" "Other" "correct" "word" "correct" "magpie" 2.995732 0 1.0986123 6 "animal" 13 6 0 "simplex" 0.69314718 6.4871 2.68 3.6695 3.3214 1.092045 0.32498 1.187616 0.297589 1.087516
"779" "A3" 6.2106 162 "F" "Other" "correct" "word" "correct" "potato" 6.461468 0 1.0986123 6 "plant" 206 433 0 "simplex" -0.74032574 6.3833 5.8 2.8516 2.6131 7.934039 8.286993 25.890023 1.044486 3.263158
"780" "A3" 6.390241 163 "F" "Other" "correct" "word" "correct" "pineapple" 3.988984 0 1.0986123 9 "plant" 44 9 0 "complex" 1.5040774 6.4022 4.4 1.8716 1.4581 2.596392 0.64996 6.650648 0.250332 2.561496
"781" "A3" 6.605298 165 "F" "Other" "correct" "nonword" "correct" "wasp" 4.682131 1.3862944 0.6931472 4 "animal" 43 64 0.4621 "simplex" -0.39019764 6.5057 3.36 3.6045 3.3145 2.551819 1.46241 0.712569 0.573086 0.27924
"782" "A3" 6.459904 168 "F" "Other" "correct" "nonword" "correct" "beetroot" 3.555348 0 1.0986123 8 "plant" 15 19 0 "complex" -0.22314355 6.4468 3.88 1.8705 1.4442 0.635169 0.16249 0.475046 0.255822 0.747906
"783" "A3" 6.416732 169 "F" "Other" "correct" "word" "correct" "squirrel" 4.70953 0 1.0986123 8 "animal" 63 47 0 "simplex" 0.28768207 6.4491 2.8 3.7114 3.4178 2.406956 0.81245 1.425139 0.337543 0.592092
"784" "A3" 6.495266 171 "F" "Other" "correct" "nonword" "correct" "sheep" 6.577861 2.3025851 1.3862944 5 "animal" 359 359 1.5565 "simplex" 0 6.2984 5.2 3.7201 3.4881 29.752647 43.872313 22.327176 1.474568 0.750427
"785" "A3" 6.278521 175 "F" "Other" "correct" "nonword" "correct" "apricot" 3.828641 0 1.3862944 7 "plant" 26 19 0 "simplex" 0.30010459 6.3637 4.4 1.7597 1.3216 2.340096 0.64996 3.80037 0.277749 1.624023
"786" "A3" 6.421622 176 "F" "Other" "correct" "word" "correct" "horse" 7.77191 3.3322045 2.0794415 5 "animal" 1518 854 1.0925 "simplex" 0.57470603 6.3364 4.84 4.8195 4.7138 79.173243 62.071199 59.855833 0.783992 0.756011
"787" "A3" 6.434547 179 "F" "Other" "correct" "nonword" "correct" "spider" 4.844187 0.6931472 1.0986123 6 "animal" 73 53 0.5763 "simplex" 0.31508105 6.3401 5.04 3.4381 3.1251 6.017389 1.13743 23.039745 0.189024 3.828861
"788" "A3" 6.466145 180 "F" "Other" "correct" "word" "correct" "grape" 5.192957 1.0986123 1.0986123 5 "plant" 37 142 1.1273 "simplex" -1.32525847 6.3036 4.68 1.5349 1.1317 2.975265 0.64996 1.662662 0.218455 0.558828
"789" "A3" 6.44254 181 "F" "Other" "correct" "word" "correct" "gherkin" 2.079442 0 1.0986123 7 "plant" 4 3 0 "simplex" 0.22314355 6.5161 3.16 2.2484 1.8185 0.111433 0.16249 0.237523 1.458184 2.131531
"790" "A3" 6.380123 185 "F" "Other" "correct" "nonword" "correct" "swan" 4.962845 1.3862944 1.3862944 4 "animal" 88 46 0.7769 "simplex" 0.63848877 6.3781 3 3.2612 2.9268 5.281931 2.599841 2.850278 0.492214 0.539628
"949" "C" 6.533789 23 "F" "English" "correct" "word" "correct" "vulture" 4.248495 0 1.0986123 7 "animal" 21 48 0 "simplex" -0.80077784 6.6213 2.28 3.6219 3.3054 1.270338 0.32498 0.237523 0.255822 0.186976
"950" "C" 6.53814 26 "F" "English" "correct" "nonword" "correct" "camel" 6.109248 0.6931472 0.6931472 5 "animal" 146 303 0.1012 "simplex" -0.72659511 6.386 2.72 4.4303 4.2654 3.320707 0.81245 3.087801 0.244662 0.929862
"951" "C" 6.246107 27 "F" "English" "correct" "word" "correct" "kiwi" 3.044522 0 1.3862944 4 "plant" 11 9 0 "simplex" 0.18232156 6.3173 5.28 1.8289 1.3752 2.139516 0 1.187616 0 0.555086
"952" "C" 6.416732 28 "F" "English" "correct" "word" "correct" "avocado" 3.433987 0 1.3862944 7 "plant" 24 6 0 "simplex" 1.27296568 6.4032 4.12 1.7737 1.3256 0.936038 0.81245 0.950093 0.867967 1.015015
"953" "C" 6.284134 29 "F" "English" "correct" "word" "correct" "gull" 4.418841 1.6094379 1.0986123 4 "animal" 23 59 1.7296 "simplex" -0.91629073 6.4384 2.6 2.717 2.3265 1.894363 0.32498 0.237523 0.171551 0.125384
"954" "C" 6.473891 31 "F" "English" "correct" "nonword" "correct" "banana" 5.023881 0 1.0986123 6 "plant" 74 77 0 "simplex" -0.03922071 6.3178 5.68 2.0802 1.7189 4.524185 1.29992 23.039745 0.287327 5.092573
"955" "C" 6.269096 33 "F" "English" "correct" "nonword" "correct" "whale" 5.298317 1.0986123 1.3862944 5 "animal" 104 95 0.4994 "simplex" 0.08961216 6.3548 3.96 3.535 3.2365 5.872526 1.949881 1.900185 0.332034 0.323572
"956" "C" 6.398595 35 "F" "English" "correct" "nonword" "correct" "donkey" 5.541264 0 1.0986123 6 "animal" 162 92 0.037 "simplex" 0.56115071 6.3328 3.48 3.9986 3.7598 5.081351 3.737271 6.650648 0.735488 1.308835
"957" "C" 6.196444 36 "F" "English" "correct" "word" "correct" "shark" 5.880533 0.6931472 1.7917595 5 "animal" 246 111 0.0277 "simplex" 0.79088947 6.3179 3.76 3.9283 3.6724 3.231561 0.32498 3.80037 0.100564 1.176017
"958" "C" 6.33328 38 "F" "English" "correct" "nonword" "correct" "chicken" 6.59987 1.0986123 1.7917595 7 "animal" 534 200 0.0798 "simplex" 0.97896184 6.3028 5.68 4.3832 4.1964 17.651009 7.312052 100.709814 0.414257 5.705612
"959" "C" 6.173786 39 "F" "English" "correct" "word" "correct" "monkey" 5.783825 0 1.6094379 6 "animal" 162 162 0 "simplex" 0 6.3075 4 3.9559 3.7049 5.348791 2.924821 14.963958 0.546819 2.797634
"960" "C" 6.173786 41 "F" "English" "correct" "nonword" "correct" "wasp" 4.682131 1.3862944 0.6931472 4 "animal" 43 64 0.4621 "simplex" -0.39019764 6.5057 3.36 3.6045 3.3145 2.551819 1.46241 0.712569 0.573086 0.27924
"961" "C" 6.180017 46 "F" "English" "correct" "nonword" "correct" "cat" 7.086738 2.7725887 2.1972246 3 "animal" 739 456 0.6845 "simplex" 0.4819668 6.2675 5.64 4.3152 4.1296 36.940084 18.523866 110.923309 0.501457 3.00279
"962" "C" 6.386879 53 "F" "English" "correct" "nonword" "correct" "eggplant" 1.791759 0 1.0986123 8 "plant" 4 1 0 "complex" 0.91629073 6.395 3.16 2.3908 1.9674 0.022287 0 0 0 0
"963" "C" 6.499787 54 "F" "English" "correct" "word" "correct" "gherkin" 2.079442 0 1.0986123 7 "plant" 4 3 0 "simplex" 0.22314355 6.5161 3.16 2.2484 1.8185 0.111433 0.16249 0.237523 1.458184 2.131531
"964" "C" 6.173786 55 "F" "English" "correct" "word" "correct" "bat" 5.918894 2.1972246 2.3025851 3 "animal" 155 103 2.2641 "simplex" 0.40546511 6.329 3.2 2.5589 2.1666 9.427243 5.199682 6.888171 0.551559 0.730667
"965" "C" 6.070738 56 "F" "English" "correct" "word" "correct" "bee" 5.700444 1.7917595 1.0986123 3 "animal" 118 180 0.8521 "simplex" -0.41937354 6.2978 4.56 3.6399 3.3756 5.281931 1.6249 5.938079 0.307634 1.124225
"966" "C" 6.304449 59 "F" "English" "correct" "nonword" "correct" "spider" 4.844187 0.6931472 1.0986123 6 "animal" 73 53 0.5763 "simplex" 0.31508105 6.3401 5.04 3.4381 3.1251 6.017389 1.13743 23.039745 0.189024 3.828861
"967" "C" 6.20859 60 "F" "English" "correct" "word" "correct" "squid" 3.970292 0 1.0986123 5 "animal" 23 29 0 "simplex" -0.22314355 6.4089 3.08 3.5957 3.2684 1.64921 0.16249 1.187616 0.098526 0.720112
"968" "C" 6.395262 62 "F" "English" "correct" "nonword" "correct" "pineapple" 3.988984 0 1.0986123 9 "plant" 44 9 0 "complex" 1.5040774 6.4022 4.4 1.8716 1.4581 2.596392 0.64996 6.650648 0.250332 2.561496
"969" "C" 6.483107 66 "F" "English" "correct" "nonword" "correct" "swan" 4.962845 1.3862944 1.3862944 4 "animal" 88 46 0.7769 "simplex" 0.63848877 6.3781 3 3.2612 2.9268 5.281931 2.599841 2.850278 0.492214 0.539628
"970" "C" 6.293419 67 "F" "English" "correct" "word" "correct" "strawberry" 4.75359 0 1.3862944 10 "plant" 50 65 0 "complex" -0.25782911 6.3475 5.04 1.8922 1.4951 2.919548 0.64996 18.526805 0.222624 6.345778
"971" "C" 6.293419 69 "F" "English" "correct" "nonword" "correct" "sheep" 6.577861 2.3025851 1.3862944 5 "animal" 359 359 1.5565 "simplex" 0 6.2984 5.2 3.7201 3.4881 29.752647 43.872313 22.327176 1.474568 0.750427
"972" "C" 6.272877 70 "F" "English" "correct" "word" "correct" "walnut" 4.49981 0 1.3862944 6 "plant" 70 19 0 "simplex" 1.2669476 6.4226 3.92 1.8327 1.422 3.454427 0.64996 4.987986 0.188153 1.44394
"973" "C" 6.496775 72 "F" "English" "correct" "nonword" "correct" "tortoise" 4.624973 0 0.6931472 8 "animal" 71 30 0.3463 "simplex" 0.84267891 6.5318 2.52 3.653 3.3654 1.78293 0.48747 1.425139 0.27341 0.799324
"974" "C" 6.25575 73 "F" "English" "correct" "word" "correct" "lion" 6.098074 1.0986123 1.0986123 4 "animal" 152 292 0.234 "simplex" -0.64973469 6.3014 4.04 4.2029 4.0036 12.502798 4.874701 3.80037 0.389889 0.303962
"975" "C" 6.234411 74 "F" "English" "correct" "word" "correct" "goat" 6.228511 1.9459101 1.0986123 4 "animal" 209 297 1.0093 "simplex" -0.34998596 6.2772 3.88 3.8703 3.647 6.362832 0.64996 4.037893 0.10215 0.634606
"976" "C" 6.380123 76 "F" "English" "correct" "nonword" "correct" "asparagus" 3.663562 0 1.0986123 9 "plant" 19 19 0 "simplex" 0 6.4939 3.68 1.866 1.4424 1.281481 0 0 0 0
"977" "C" 6.306275 78 "F" "English" "correct" "nonword" "correct" "apricot" 3.828641 0 1.3862944 7 "plant" 26 19 0 "simplex" 0.30010459 6.3637 4.4 1.7597 1.3216 2.340096 0.64996 3.80037 0.277749 1.624023
"978" "C" 6.259581 80 "F" "English" "correct" "nonword" "incorrect" "pig" 6.660575 2.7725887 2.3025851 3 "animal" 320 460 1.6313 "simplex" -0.36195692 6.2783 4.48 3.4075 3.12 12.636518 10.886833 17.576713 0.861537 1.390946
"979" "C" 6.249975 81 "F" "English" "correct" "word" "correct" "apple" 6.304449 1.0986123 1.0986123 5 "plant" 315 231 0.496 "simplex" 0.30900484 6.2452 5.84 2.473 2.1948 24.54872 7.799522 40.853981 0.317716 1.6642
"980" "C" 6.280396 82 "F" "English" "correct" "word" "correct" "mustard" 4.442651 0 1.3862944 7 "plant" 84 0 0 "simplex" 4.44265126 6.4177 4 1.8218 1.4082 4.524185 4.549721 6.175602 1.005644 1.36502
"981" "C" 6.487684 83 "F" "English" "correct" "word" "correct" "hedgehog" 3.637586 0 1.0986123 8 "animal" 21 16 0 "simplex" 0.25782911 6.5924 3.32 3.592 3.2545 2.718969 0.64996 3.325324 0.239047 1.223009
"982" "C" 6.586172 86 "F" "English" "correct" "nonword" "correct" "ant" 5.347108 1.3862944 1.0986123 3 "animal" 69 140 0.562 "simplex" -0.70026465 6.3231 3.6 3.6275 3.3489 4.591045 0.16249 3.80037 0.035393 0.827779
"983" "C" 6.411818 88 "F" "English" "correct" "nonword" "correct" "fox" 5.652489 1.7917595 1.9459101 3 "animal" 177 100 1.2335 "simplex" 0.56666303 6.3451 3.24 3.0987 2.7558 10.028982 83.194905 5.938079 8.295449 0.592092
"984" "C" 6.36647 89 "F" "English" "correct" "word" "correct" "elephant" 6.063785 0.6931472 1.0986123 8 "animal" 113 316 0.213 "simplex" -1.02270333 6.322 3.88 4.1927 3.9911 8.691785 8.611973 7.363218 0.990818 0.847147
"985" "C" 6.214608 90 "F" "English" "correct" "word" "correct" "moose" 2.70805 0 0.6931472 5 "animal" 7 7 0 "simplex" 0 6.3349 2.48 3.8893 3.5673 0.668599 0 2.375231 0 3.552551
"986" "C" 6.276643 91 "F" "English" "correct" "word" "correct" "beetroot" 3.555348 0 1.0986123 8 "plant" 15 19 0 "complex" -0.22314355 6.4468 3.88 1.8705 1.4442 0.635169 0.16249 0.475046 0.255822 0.747906
"987" "C" 6.326149 93 "F" "English" "correct" "nonword" "correct" "carrot" 4.976734 0.6931472 1.6094379 6 "plant" 45 99 0.0594 "simplex" -0.77652879 6.35 5.48 1.8449 1.4437 3.398711 2.437351 14.963958 0.71714 4.402834
"988" "C" 6.270988 100 "F" "English" "correct" "nonword" "correct" "snake" 6.120297 1.6094379 1.9459101 5 "animal" 251 161 0.8809 "simplex" 0.44183275 6.3113 3.52 3.5577 3.2734 7.109434 2.599841 4.275417 0.365689 0.601372
"989" "C" 6.190315 102 "F" "English" "correct" "nonword" "correct" "olive" 5.587249 1.0986123 1.9459101 5 "plant" 160 78 0.5684 "simplex" 0.71195651 6.295 4.12 1.6987 1.2952 3.877873 0 2.850278 0 0.735011
"990" "C" 6.115892 109 "F" "English" "correct" "nonword" "correct" "pear" 4.727388 0 1.0986123 4 "plant" 44 68 0 "simplex" -0.42744401 6.3353 4.52 1.9908 1.6114 2.05037 1.46241 7.363218 0.713242 3.591166
"991" "C" 6.285998 112 "F" "English" "correct" "nonword" "correct" "butterfly" 5.214936 0 1.0986123 9 "animal" 88 95 0 "complex" -0.07571182 6.4062 4.08 3.8757 3.6141 6.719418 0.64996 5.463032 0.096729 0.813022
"992" "C" 6.295266 113 "F" "English" "correct" "word" "correct" "blueberry" 2.484907 0 1.0986123 9 "plant" 7 4 0 "complex" 0.47000363 6.3549 3.76 2.0858 1.6507 0.122576 0 0.237523 0 1.937755
"993" "C" 6.287859 114 "F" "English" "correct" "word" "correct" "mole" 4.60517 1.0986123 1.9459101 4 "animal" 69 30 0.6968 "simplex" 0.81450804 6.415 2.4 2.9999 2.6112 5.738806 4.062251 2.850278 0.707856 0.496667
"994" "C" 6.284134 115 "F" "English" "correct" "word" "correct" "cucumber" 4.454347 0 1.0986123 8 "plant" 54 31 0 "simplex" 0.54159728 6.4393 4.48 1.9295 1.5357 2.11723 0.64996 4.037893 0.306986 1.907159
"995" "C" 6.23637 116 "F" "English" "correct" "word" "correct" "orange" 6.378426 1.3862944 1.7917595 6 "plant" 258 93 1.0996 "simplex" 1.01353328 6.285 5.6 1.9453 1.5999 16.68154 6.337112 56.530509 0.379888 3.388806
"996" "C" 6.186209 122 "F" "English" "correct" "nonword" "correct" "lemon" 5.631212 0.6931472 1.6094379 5 "plant" 233 45 0.6285 "simplex" 1.62667972 6.29 5.04 1.8119 1.4315 11.834199 3.087311 22.089653 0.26088 1.866595
"997" "C" 6.43615 124 "F" "English" "correct" "nonword" "correct" "horse" 7.77191 3.3322045 2.0794415 5 "animal" 1518 854 1.0925 "simplex" 0.57470603 6.3364 4.84 4.8195 4.7138 79.173243 62.071199 59.855833 0.783992 0.756011
"998" "C" 6.369901 127 "F" "English" "correct" "nonword" "correct" "squirrel" 4.70953 0 1.0986123 8 "animal" 63 47 0 "simplex" 0.28768207 6.4491 2.8 3.7114 3.4178 2.406956 0.81245 1.425139 0.337543 0.592092
"999" "C" 6.152733 130 "F" "English" "correct" "nonword" "correct" "goose" 5.267858 1.7917595 1.3862944 5 "animal" 103 85 1.4565 "simplex" 0.1900436 6.3514 3.4 3.0071 2.6612 4.401609 1.949881 1.900185 0.442993 0.431702
"1000" "C" 6.146329 131 "F" "English" "correct" "word" "correct" "bunny" 3.332205 0 1.0986123 5 "animal" 19 8 0 "simplex" 0.7985077 6.4092 3.4 3.615 3.271 3.276134 0.16249 10.451018 0.049598 3.190046
"1001" "C" 6.440947 134 "F" "English" "correct" "nonword" "correct" "almond" 4.204693 0 1.0986123 6 "plant" 24 42 0 "simplex" -0.54232429 6.3908 3.72 1.8912 1.486 3.075555 0.16249 1.425139 0.052833 0.463376
"1002" "C" 6.173786 135 "F" "English" "correct" "word" "correct" "clove" 3.663562 0 1.6094379 5 "plant" 16 22 0 "simplex" -0.30228087 6.4277 3.12 1.6785 1.2208 1.482061 0 0.237523 0 0.160265
"1003" "C" 6.331502 137 "F" "English" "correct" "nonword" "correct" "peanut" 4.59512 0.6931472 1.6094379 6 "plant" 49 49 0.4719 "complex" 0 6.2664 4.68 1.517 1.074 1.214621 0 5.938079 0 4.888832
"1004" "C" 6.486161 140 "F" "English" "correct" "nonword" "correct" "beaver" 3.951244 0 2.0794415 6 "animal" 37 14 0 "simplex" 0.92953596 6.4199 2.2 3.2347 2.8413 1.482061 0 0 0 0
"1005" "C" 6.171701 141 "F" "English" "correct" "word" "correct" "mushroom" 5.537334 0.6931472 1.9459101 8 "plant" 90 137 0.4777 "simplex" -0.41639418 6.3365 4.8 1.7232 1.3199 3.264991 0.64996 6.413125 0.19907 1.964209
"1006" "C" 6.324359 144 "F" "English" "correct" "nonword" "correct" "dog" 7.667626 3.1354942 2.0794415 3 "animal" 1233 828 1.2129 "simplex" 0.39779605 6.2956 6.04 4.6429 4.5167 74.838494 50.859385 241.56104 0.679589 3.227765
"1007" "C" 6.679599 145 "F" "English" "correct" "word" "correct" "frog" 5.129899 2.0794415 1.3862944 4 "animal" 74 94 1.0456 "simplex" -0.23638878 6.3335 3.76 3.1746 2.8385 5.059064 1.46241 10.451018 0.289067 2.065801
"1008" "C" 6.311735 146 "F" "English" "correct" "word" "correct" "stork" 3.044522 0 0.6931472 5 "animal" 13 7 0 "simplex" 0.55961579 6.5239 2 3.8085 3.4878 0.724315 0 0.475046 0 0.655856
"1009" "C" 6.423247 148 "F" "English" "correct" "nonword" "correct" "potato" 6.461468 0 1.0986123 6 "plant" 206 433 0 "simplex" -0.74032574 6.3833 5.8 2.8516 2.6131 7.934039 8.286993 25.890023 1.044486 3.263158
"1010" "C" 6.591674 150 "F" "English" "correct" "nonword" "correct" "radish" 3.044522 0.6931472 1.3862944 6 "plant" 11 9 0.9403 "simplex" 0.18232156 6.4133 3.12 1.3226 0.8244 1.961223 0 0 0 0
"1011" "C" 6.405228 151 "F" "English" "correct" "word" "correct" "paprika" 2.484907 0 1.0986123 7 "plant" 11 0 0 "simplex" 2.48490665 6.4825 3.44 2.0858 1.6507 0.456876 0 0.475046 0 1.039771
"1012" "C" 6.338594 153 "F" "English" "correct" "nonword" "correct" "blackberry" 4.060443 0.6931472 1.3862944 10 "plant" 26 31 0.3492 "complex" -0.16989904 6.3959 3.28 1.5831 1.1365 1.270338 0.16249 1.187616 0.127911 0.934882
"1013" "C" 6.418365 159 "F" "English" "correct" "nonword" "correct" "lettuce" 4.812184 0 1.0986123 7 "plant" 115 7 0 "simplex" 2.67414865 6.3753 5.12 2.0139 1.6395 3.721867 0.97494 7.600741 0.261949 2.042185
"1014" "C" 6.376727 161 "F" "English" "correct" "nonword" "correct" "mouse" 5.805135 1.9459101 1.6094379 5 "animal" 146 184 0.4497 "simplex" -0.22992324 6.3261 4.44 3.7255 3.4551 18.297321 18.848846 10.688542 1.030142 0.584159
"1015" "C" 6.163315 162 "F" "English" "correct" "word" "correct" "crocodile" 4.615121 0 0.6931472 9 "animal" 35 65 0 "simplex" -0.6061358 6.4433 3.36 3.8372 3.5655 2.574105 2.112371 2.850278 0.820623 1.107289
"1016" "C" 6.46925 164 "F" "English" "correct" "nonword" "correct" "reindeer" 4.043051 0 0.6931472 8 "animal" 28 28 0 "complex" 0 6.4974 2.28 3.7494 3.4517 1.537777 0.97494 0.950093 0.633993 0.617835
"1017" "C" 6.265301 165 "F" "English" "incorrect" "word" "correct" "broccoli" 2.833213 0 1.0986123 8 "plant" 16 0 0 "simplex" 2.83321334 6.4157 4.96 1.9817 1.5459 1.170048 0.64996 5.938079 0.555499 5.075073
"1018" "C" 6.385194 168 "F" "English" "correct" "nonword" "correct" "tomato" 5.545177 0 1.0986123 6 "plant" 123 132 0 "simplex" -0.07006756 6.3422 5.44 2.2952 1.9716 7.120577 0.48747 20.426991 0.068459 2.868727
"1019" "C" 6.493754 172 "F" "English" "correct" "nonword" "correct" "leek" 3.332205 0 1.0986123 4 "plant" 5 22 0 "simplex" -1.34373475 6.42 3.68 1.8898 1.459 0.846892 0.16249 2.375231 0.191866 2.804646
"1020" "C" 6.426488 174 "F" "English" "correct" "nonword" "correct" "magpie" 2.995732 0 1.0986123 6 "animal" 13 6 0 "simplex" 0.69314718 6.4871 2.68 3.6695 3.3214 1.092045 0.32498 1.187616 0.297589 1.087516
"1021" "C" 6.171701 175 "F" "English" "correct" "word" "correct" "owl" 4.859812 1.3862944 0.6931472 3 "animal" 54 74 0.7912 "simplex" -0.31015493 6.3582 3.12 3.4758 3.1806 12.057065 0 6.175602 0 0.512198
"1022" "C" 6.180017 177 "F" "English" "correct" "nonword" "correct" "cherry" 4.997212 0.6931472 1.6094379 6 "plant" 83 49 0.4754 "simplex" 0.51879379 6.3426 3.88 1.6278 1.2081 5.71652 3.249801 12.588727 0.568493 2.202166
"1023" "C" 6.293419 178 "F" "English" "correct" "word" "correct" "eagle" 5.117994 1.0986123 1.7917595 5 "animal" 129 37 0.7235 "simplex" 1.22994829 6.3692 2.88 3.1948 2.8461 12.246502 1.29992 1.900185 0.106146 0.155161
"1024" "C" 6.304449 179 "F" "English" "correct" "word" "correct" "woodpecker" 2.890372 0 0.6931472 10 "animal" 11 6 0 "complex" 0.5389965 6.5041 2.04 3.8417 3.52 1.025185 0.48747 0 0.475495 0
"1025" "C" 6.364751 181 "F" "English" "correct" "nonword" "correct" "dolphin" 4.007333 0 1.0986123 7 "animal" 24 30 0 "simplex" -0.21511138 6.3944 3.88 3.598 3.272 8.067759 0.32498 0.712569 0.040281 0.088323
"1026" "C" 6.246107 182 "F" "English" "correct" "word" "correct" "melon" 4.127134 1.0986123 1.0986123 5 "plant" 38 23 0.5392 "simplex" 0.48550782 6.3712 3.56 1.5924 1.1586 2.15066 0.16249 1.187616 0.075554 0.55221
"1027" "C" 6.234411 184 "F" "English" "correct" "nonword" "correct" "grape" 5.192957 1.0986123 1.0986123 5 "plant" 37 142 1.1273 "simplex" -1.32525847 6.3036 4.68 1.5349 1.1317 2.975265 0.64996 1.662662 0.218455 0.558828
"80" "D" 6.232448 24 "M" "Other" "correct" "nonword" "correct" "peanut" 4.59512 0.6931472 1.6094379 6 "plant" 49 49 0.4719 "complex" 0 6.2664 4.68 1.517 1.074 1.214621 0 5.938079 0 4.888832
"81" "D" 6.349139 28 "M" "Other" "correct" "nonword" "correct" "swan" 4.962845 1.3862944 1.3862944 4 "animal" 88 46 0.7769 "simplex" 0.63848877 6.3781 3 3.2612 2.9268 5.281931 2.599841 2.850278 0.492214 0.539628
"82" "D" 6.375025 29 "M" "Other" "correct" "word" "correct" "lettuce" 4.812184 0 1.0986123 7 "plant" 115 7 0 "simplex" 2.67414865 6.3753 5.12 2.0139 1.6395 3.721867 0.97494 7.600741 0.261949 2.042185
"83" "D" 6.315358 30 "M" "Other" "correct" "word" "correct" "walnut" 4.49981 0 1.3862944 6 "plant" 70 19 0 "simplex" 1.2669476 6.4226 3.92 1.8327 1.422 3.454427 0.64996 4.987986 0.188153 1.44394
"84" "D" 6.440947 32 "M" "Other" "correct" "nonword" "correct" "beetroot" 3.555348 0 1.0986123 8 "plant" 15 19 0 "complex" -0.22314355 6.4468 3.88 1.8705 1.4442 0.635169 0.16249 0.475046 0.255822 0.747906
"85" "D" 6.284134 33 "M" "Other" "correct" "word" "correct" "broccoli" 2.833213 0 1.0986123 8 "plant" 16 0 0 "simplex" 2.83321334 6.4157 4.96 1.9817 1.5459 1.170048 0.64996 5.938079 0.555499 5.075073
"86" "D" 6.300786 37 "M" "Other" "correct" "nonword" "correct" "spider" 4.844187 0.6931472 1.0986123 6 "animal" 73 53 0.5763 "simplex" 0.31508105 6.3401 5.04 3.4381 3.1251 6.017389 1.13743 23.039745 0.189024 3.828861
"87" "D" 6.458338 41 "M" "Other" "correct" "nonword" "correct" "cucumber" 4.454347 0 1.0986123 8 "plant" 54 31 0 "simplex" 0.54159728 6.4393 4.48 1.9295 1.5357 2.11723 0.64996 4.037893 0.306986 1.907159
"88" "D" 6.350886 44 "M" "Other" "correct" "nonword" "correct" "blackberry" 4.060443 0.6931472 1.3862944 10 "plant" 26 31 0.3492 "complex" -0.16989904 6.3959 3.28 1.5831 1.1365 1.270338 0.16249 1.187616 0.127911 0.934882
"89" "D" 6.380123 46 "M" "Other" "correct" "nonword" "correct" "snake" 6.120297 1.6094379 1.9459101 5 "animal" 251 161 0.8809 "simplex" 0.44183275 6.3113 3.52 3.5577 3.2734 7.109434 2.599841 4.275417 0.365689 0.601372
"90" "D" 6.272877 47 "M" "Other" "correct" "word" "correct" "cat" 7.086738 2.7725887 2.1972246 3 "animal" 739 456 0.6845 "simplex" 0.4819668 6.2675 5.64 4.3152 4.1296 36.940084 18.523866 110.923309 0.501457 3.00279
"91" "D" 6.287859 48 "M" "Other" "correct" "word" "correct" "fox" 5.652489 1.7917595 1.9459101 3 "animal" 177 100 1.2335 "simplex" 0.56666303 6.3451 3.24 3.0987 2.7558 10.028982 83.194905 5.938079 8.295449 0.592092
"92" "D" 6.466145 49 "M" "Other" "correct" "word" "correct" "gherkin" 2.079442 0 1.0986123 7 "plant" 4 3 0 "simplex" 0.22314355 6.5161 3.16 2.2484 1.8185 0.111433 0.16249 0.237523 1.458184 2.131531
"93" "D" 6.539586 51 "M" "Other" "correct" "nonword" "correct" "tomato" 5.545177 0 1.0986123 6 "plant" 123 132 0 "simplex" -0.07006756 6.3422 5.44 2.2952 1.9716 7.120577 0.48747 20.426991 0.068459 2.868727
"94" "D" 6.472346 54 "M" "Other" "correct" "nonword" "correct" "squirrel" 4.70953 0 1.0986123 8 "animal" 63 47 0 "simplex" 0.28768207 6.4491 2.8 3.7114 3.4178 2.406956 0.81245 1.425139 0.337543 0.592092
"95" "D" 6.33328 56 "M" "Other" "correct" "nonword" "correct" "woodpecker" 2.890372 0 0.6931472 10 "animal" 11 6 0 "complex" 0.5389965 6.5041 2.04 3.8417 3.52 1.025185 0.48747 0 0.475495 0
"96" "D" 6.602588 59 "M" "Other" "correct" "nonword" "correct" "squid" 3.970292 0 1.0986123 5 "animal" 23 29 0 "simplex" -0.22314355 6.4089 3.08 3.5957 3.2684 1.64921 0.16249 1.187616 0.098526 0.720112
"97" "D" 6.437752 60 "M" "Other" "correct" "word" "correct" "butterfly" 5.214936 0 1.0986123 9 "animal" 88 95 0 "complex" -0.07571182 6.4062 4.08 3.8757 3.6141 6.719418 0.64996 5.463032 0.096729 0.813022
"98" "D" 6.122493 61 "M" "Other" "correct" "word" "correct" "orange" 6.378426 1.3862944 1.7917595 6 "plant" 258 93 1.0996 "simplex" 1.01353328 6.285 5.6 1.9453 1.5999 16.68154 6.337112 56.530509 0.379888 3.388806
"99" "D" 6.34388 62 "M" "Other" "correct" "word" "correct" "beaver" 3.951244 0 2.0794415 6 "animal" 37 14 0 "simplex" 0.92953596 6.4199 2.2 3.2347 2.8413 1.482061 0 0 0 0
"100" "D" 6.122493 63 "M" "Other" "correct" "word" "correct" "dog" 7.667626 3.1354942 2.0794415 3 "animal" 1233 828 1.2129 "simplex" 0.39779605 6.2956 6.04 4.6429 4.5167 74.838494 50.859385 241.56104 0.679589 3.227765
"101" "D" 6.084499 64 "M" "Other" "correct" "word" "correct" "banana" 5.023881 0 1.0986123 6 "plant" 74 77 0 "simplex" -0.03922071 6.3178 5.68 2.0802 1.7189 4.524185 1.29992 23.039745 0.287327 5.092573
"102" "D" 6.175867 65 "M" "Other" "correct" "word" "correct" "blueberry" 2.484907 0 1.0986123 9 "plant" 7 4 0 "complex" 0.47000363 6.3549 3.76 2.0858 1.6507 0.122576 0 0.237523 0 1.937755
"103" "D" 6.226537 66 "M" "Other" "correct" "word" "correct" "donkey" 5.541264 0 1.0986123 6 "animal" 162 92 0.037 "simplex" 0.56115071 6.3328 3.48 3.9986 3.7598 5.081351 3.737271 6.650648 0.735488 1.308835
"104" "D" 5.993961 67 "M" "Other" "correct" "word" "correct" "pig" 6.660575 2.7725887 2.3025851 3 "animal" 320 460 1.6313 "simplex" -0.36195692 6.2783 4.48 3.4075 3.12 12.636518 10.886833 17.576713 0.861537 1.390946
"105" "D" 6.320768 70 "M" "Other" "correct" "nonword" "correct" "paprika" 2.484907 0 1.0986123 7 "plant" 11 0 0 "simplex" 2.48490665 6.4825 3.44 2.0858 1.6507 0.456876 0 0.475046 0 1.039771
"106" "D" 6.588926 72 "M" "Other" "correct" "nonword" "correct" "carrot" 4.976734 0.6931472 1.6094379 6 "plant" 45 99 0.0594 "simplex" -0.77652879 6.35 5.48 1.8449 1.4437 3.398711 2.437351 14.963958 0.71714 4.402834
"107" "D" 6.214608 74 "M" "Other" "correct" "nonword" "correct" "camel" 6.109248 0.6931472 0.6931472 5 "animal" 146 303 0.1012 "simplex" -0.72659511 6.386 2.72 4.4303 4.2654 3.320707 0.81245 3.087801 0.244662 0.929862
"108" "D" 6.434547 76 "M" "Other" "correct" "nonword" "correct" "whale" 5.298317 1.0986123 1.3862944 5 "animal" 104 95 0.4994 "simplex" 0.08961216 6.3548 3.96 3.535 3.2365 5.872526 1.949881 1.900185 0.332034 0.323572
"109" "D" 6.313548 77 "M" "Other" "correct" "word" "correct" "mouse" 5.805135 1.9459101 1.6094379 5 "animal" 146 184 0.4497 "simplex" -0.22992324 6.3261 4.44 3.7255 3.4551 18.297321 18.848846 10.688542 1.030142 0.584159
"110" "D" 6.244167 78 "M" "Other" "correct" "word" "correct" "kiwi" 3.044522 0 1.3862944 4 "plant" 11 9 0 "simplex" 0.18232156 6.3173 5.28 1.8289 1.3752 2.139516 0 1.187616 0 0.555086
"111" "D" 6.448889 80 "M" "Other" "correct" "nonword" "correct" "avocado" 3.433987 0 1.3862944 7 "plant" 24 6 0 "simplex" 1.27296568 6.4032 4.12 1.7737 1.3256 0.936038 0.81245 0.950093 0.867967 1.015015
"112" "D" 6.261492 85 "M" "Other" "correct" "nonword" "correct" "cherry" 4.997212 0.6931472 1.6094379 6 "plant" 83 49 0.4754 "simplex" 0.51879379 6.3426 3.88 1.6278 1.2081 5.71652 3.249801 12.588727 0.568493 2.202166
"113" "D" 6.309918 86 "M" "Other" "correct" "word" "correct" "owl" 4.859812 1.3862944 0.6931472 3 "animal" 54 74 0.7912 "simplex" -0.31015493 6.3582 3.12 3.4758 3.1806 12.057065 0 6.175602 0 0.512198
"114" "D" 6.514713 87 "M" "Other" "correct" "word" "correct" "reindeer" 4.043051 0 0.6931472 8 "animal" 28 28 0 "complex" 0 6.4974 2.28 3.7494 3.4517 1.537777 0.97494 0.950093 0.633993 0.617835
"115" "D" 6.265301 89 "M" "Other" "correct" "nonword" "correct" "lion" 6.098074 1.0986123 1.0986123 4 "animal" 152 292 0.234 "simplex" -0.64973469 6.3014 4.04 4.2029 4.0036 12.502798 4.874701 3.80037 0.389889 0.303962
"116" "D" 6.265301 90 "M" "Other" "incorrect" "word" "correct" "tortoise" 4.624973 0 0.6931472 8 "animal" 71 30 0.3463 "simplex" 0.84267891 6.5318 2.52 3.653 3.3654 1.78293 0.48747 1.425139 0.27341 0.799324
"117" "D" 6.419995 91 "M" "Other" "correct" "word" "incorrect" "olive" 5.587249 1.0986123 1.9459101 5 "plant" 160 78 0.5684 "simplex" 0.71195651 6.295 4.12 1.6987 1.2952 3.877873 0 2.850278 0 0.735011
"118" "D" 6.361302 92 "M" "Other" "correct" "word" "correct" "mole" 4.60517 1.0986123 1.9459101 4 "animal" 69 30 0.6968 "simplex" 0.81450804 6.415 2.4 2.9999 2.6112 5.738806 4.062251 2.850278 0.707856 0.496667
"119" "D" 6.378426 97 "M" "Other" "correct" "nonword" "correct" "apricot" 3.828641 0 1.3862944 7 "plant" 26 19 0 "simplex" 0.30010459 6.3637 4.4 1.7597 1.3216 2.340096 0.64996 3.80037 0.277749 1.624023
"120" "D" 6.49224 99 "M" "Other" "correct" "nonword" "correct" "shark" 5.880533 0.6931472 1.7917595 5 "animal" 246 111 0.0277 "simplex" 0.79088947 6.3179 3.76 3.9283 3.6724 3.231561 0.32498 3.80037 0.100564 1.176017
"121" "D" 6.295266 100 "M" "Other" "correct" "word" "correct" "elephant" 6.063785 0.6931472 1.0986123 8 "animal" 113 316 0.213 "simplex" -1.02270333 6.322 3.88 4.1927 3.9911 8.691785 8.611973 7.363218 0.990818 0.847147
"122" "D" 6.368187 101 "M" "Other" "correct" "word" "correct" "radish" 3.044522 0.6931472 1.3862944 6 "plant" 11 9 0.9403 "simplex" 0.18232156 6.4133 3.12 1.3226 0.8244 1.961223 0 0 0 0
"123" "D" 6.287859 108 "M" "Other" "correct" "nonword" "correct" "bat" 5.918894 2.1972246 2.3025851 3 "animal" 155 103 2.2641 "simplex" 0.40546511 6.329 3.2 2.5589 2.1666 9.427243 5.199682 6.888171 0.551559 0.730667
"124" "D" 6.309918 109 "M" "Other" "incorrect" "word" "correct" "goat" 6.228511 1.9459101 1.0986123 4 "animal" 209 297 1.0093 "simplex" -0.34998596 6.2772 3.88 3.8703 3.647 6.362832 0.64996 4.037893 0.10215 0.634606
"125" "D" 6.395262 110 "M" "Other" "correct" "word" "incorrect" "bunny" 3.332205 0 1.0986123 5 "animal" 19 8 0 "simplex" 0.7985077 6.4092 3.4 3.615 3.271 3.276134 0.16249 10.451018 0.049598 3.190046
"126" "D" 6.165418 111 "M" "Other" "correct" "word" "correct" "grape" 5.192957 1.0986123 1.0986123 5 "plant" 37 142 1.1273 "simplex" -1.32525847 6.3036 4.68 1.5349 1.1317 2.975265 0.64996 1.662662 0.218455 0.558828
"127" "D" 6.350886 115 "M" "Other" "correct" "nonword" "correct" "lemon" 5.631212 0.6931472 1.6094379 5 "plant" 233 45 0.6285 "simplex" 1.62667972 6.29 5.04 1.8119 1.4315 11.834199 3.087311 22.089653 0.26088 1.866595
"128" "D" 6.59987 117 "M" "Other" "correct" "nonword" "correct" "hedgehog" 3.637586 0 1.0986123 8 "animal" 21 16 0 "simplex" 0.25782911 6.5924 3.32 3.592 3.2545 2.718969 0.64996 3.325324 0.239047 1.223009
"129" "D" 6.198479 118 "M" "Other" "correct" "word" "correct" "apple" 6.304449 1.0986123 1.0986123 5 "plant" 315 231 0.496 "simplex" 0.30900484 6.2452 5.84 2.473 2.1948 24.54872 7.799522 40.853981 0.317716 1.6642
"130" "D" 6.297109 123 "M" "Other" "correct" "nonword" "correct" "horse" 7.77191 3.3322045 2.0794415 5 "animal" 1518 854 1.0925 "simplex" 0.57470603 6.3364 4.84 4.8195 4.7138 79.173243 62.071199 59.855833 0.783992 0.756011
"131" "D" 6.311735 126 "M" "Other" "correct" "nonword" "correct" "strawberry" 4.75359 0 1.3862944 10 "plant" 50 65 0 "complex" -0.25782911 6.3475 5.04 1.8922 1.4951 2.919548 0.64996 18.526805 0.222624 6.345778
"132" "D" 6.594413 128 "M" "Other" "correct" "nonword" "correct" "stork" 3.044522 0 0.6931472 5 "animal" 13 7 0 "simplex" 0.55961579 6.5239 2 3.8085 3.4878 0.724315 0 0.475046 0 0.655856
"133" "D" 6.352629 129 "M" "Other" "correct" "word" "correct" "melon" 4.127134 1.0986123 1.0986123 5 "plant" 38 23 0.5392 "simplex" 0.48550782 6.3712 3.56 1.5924 1.1586 2.15066 0.16249 1.187616 0.075554 0.55221
"134" "D" 6.40688 130 "M" "Other" "incorrect" "word" "correct" "gull" 4.418841 1.6094379 1.0986123 4 "animal" 23 59 1.7296 "simplex" -0.91629073 6.4384 2.6 2.717 2.3265 1.894363 0.32498 0.237523 0.171551 0.125384
"135" "D" 6.467699 132 "M" "Other" "correct" "nonword" "correct" "moose" 2.70805 0 0.6931472 5 "animal" 7 7 0 "simplex" 0 6.3349 2.48 3.8893 3.5673 0.668599 0 2.375231 0 3.552551
"136" "D" 6.33328 133 "M" "Other" "correct" "word" "correct" "sheep" 6.577861 2.3025851 1.3862944 5 "animal" 359 359 1.5565 "simplex" 0 6.2984 5.2 3.7201 3.4881 29.752647 43.872313 22.327176 1.474568 0.750427
"137" "D" 6.956545 136 "M" "Other" "correct" "nonword" "correct" "goose" 5.267858 1.7917595 1.3862944 5 "animal" 103 85 1.4565 "simplex" 0.1900436 6.3514 3.4 3.0071 2.6612 4.401609 1.949881 1.900185 0.442993 0.431702
"138" "D" 6.44254 138 "M" "Other" "correct" "nonword" "correct" "ant" 5.347108 1.3862944 1.0986123 3 "animal" 69 140 0.562 "simplex" -0.70026465 6.3231 3.6 3.6275 3.3489 4.591045 0.16249 3.80037 0.035393 0.827779
"139" "D" 6.54535 139 "M" "Other" "correct" "word" "correct" "asparagus" 3.663562 0 1.0986123 9 "plant" 19 19 0 "simplex" 0 6.4939 3.68 1.866 1.4424 1.281481 0 0 0 0
"140" "D" 6.244167 140 "M" "Other" "correct" "word" "correct" "monkey" 5.783825 0 1.6094379 6 "animal" 162 162 0 "simplex" 0 6.3075 4 3.9559 3.7049 5.348791 2.924821 14.963958 0.546819 2.797634
"141" "D" 6.771936 149 "M" "Other" "correct" "nonword" "correct" "pineapple" 3.988984 0 1.0986123 9 "plant" 44 9 0 "complex" 1.5040774 6.4022 4.4 1.8716 1.4581 2.596392 0.64996 6.650648 0.250332 2.561496
"142" "D" 6.395262 150 "M" "Other" "correct" "word" "correct" "wasp" 4.682131 1.3862944 0.6931472 4 "animal" 43 64 0.4621 "simplex" -0.39019764 6.5057 3.36 3.6045 3.3145 2.551819 1.46241 0.712569 0.573086 0.27924
"143" "D" 6.51323 152 "M" "Other" "correct" "nonword" "correct" "mushroom" 5.537334 0.6931472 1.9459101 8 "plant" 90 137 0.4777 "simplex" -0.41639418 6.3365 4.8 1.7232 1.3199 3.264991 0.64996 6.413125 0.19907 1.964209
"144" "D" 6.552508 155 "M" "Other" "correct" "nonword" "correct" "leek" 3.332205 0 1.0986123 4 "plant" 5 22 0 "simplex" -1.34373475 6.42 3.68 1.8898 1.459 0.846892 0.16249 2.375231 0.191866 2.804646
"145" "D" 6.444131 157 "M" "Other" "correct" "nonword" "correct" "dolphin" 4.007333 0 1.0986123 7 "animal" 24 30 0 "simplex" -0.21511138 6.3944 3.88 3.598 3.272 8.067759 0.32498 0.712569 0.040281 0.088323
"146" "D" 6.415097 160 "M" "Other" "correct" "nonword" "incorrect" "almond" 4.204693 0 1.0986123 6 "plant" 24 42 0 "simplex" -0.54232429 6.3908 3.72 1.8912 1.486 3.075555 0.16249 1.425139 0.052833 0.463376
"147" "D" 6.59987 164 "M" "Other" "correct" "nonword" "correct" "clove" 3.663562 0 1.6094379 5 "plant" 16 22 0 "simplex" -0.30228087 6.4277 3.12 1.6785 1.2208 1.482061 0 0.237523 0 0.160265
"148" "D" 6.455199 168 "M" "Other" "correct" "nonword" "correct" "mustard" 4.442651 0 1.3862944 7 "plant" 84 0 0 "simplex" 4.44265126 6.4177 4 1.8218 1.4082 4.524185 4.549721 6.175602 1.005644 1.36502
"149" "D" 6.276643 169 "M" "Other" "correct" "word" "correct" "pear" 4.727388 0 1.0986123 4 "plant" 44 68 0 "simplex" -0.42744401 6.3353 4.52 1.9908 1.6114 2.05037 1.46241 7.363218 0.713242 3.591166
"150" "D" 6.98379 172 "M" "Other" "correct" "nonword" "correct" "chicken" 6.59987 1.0986123 1.7917595 7 "animal" 534 200 0.0798 "simplex" 0.97896184 6.3028 5.68 4.3832 4.1964 17.651009 7.312052 100.709814 0.414257 5.705612
"151" "D" 6.658011 175 "M" "Other" "correct" "nonword" "correct" "eagle" 5.117994 1.0986123 1.7917595 5 "animal" 129 37 0.7235 "simplex" 1.22994829 6.3692 2.88 3.1948 2.8461 12.246502 1.29992 1.900185 0.106146 0.155161
"152" "D" 6.790097 176 "M" "Other" "correct" "word" "correct" "vulture" 4.248495 0 1.0986123 7 "animal" 21 48 0 "simplex" -0.80077784 6.6213 2.28 3.6219 3.3054 1.270338 0.32498 0.237523 0.255822 0.186976
"153" "D" 6.741701 177 "M" "Other" "correct" "word" "correct" "frog" 5.129899 2.0794415 1.3862944 4 "animal" 74 94 1.0456 "simplex" -0.23638878 6.3335 3.76 3.1746 2.8385 5.059064 1.46241 10.451018 0.289067 2.065801
"154" "D" 6.572283 180 "M" "Other" "correct" "nonword" "correct" "potato" 6.461468 0 1.0986123 6 "plant" 206 433 0 "simplex" -0.74032574 6.3833 5.8 2.8516 2.6131 7.934039 8.286993 25.890023 1.044486 3.263158
"155" "D" 6.352629 181 "M" "Other" "correct" "word" "correct" "magpie" 2.995732 0 1.0986123 6 "animal" 13 6 0 "simplex" 0.69314718 6.4871 2.68 3.6695 3.3214 1.092045 0.32498 1.187616 0.297589 1.087516
"156" "D" 6.603944 183 "M" "Other" "correct" "nonword" "correct" "bee" 5.700444 1.7917595 1.0986123 3 "animal" 118 180 0.8521 "simplex" -0.41937354 6.2978 4.56 3.6399 3.3756 5.281931 1.6249 5.938079 0.307634 1.124225
"157" "D" 6.507278 184 "M" "Other" "correct" "word" "correct" "crocodile" 4.615121 0 0.6931472 9 "animal" 35 65 0 "simplex" -0.6061358 6.4433 3.36 3.8372 3.5655 2.574105 2.112371 2.850278 0.820623 1.107289
"158" "D" 6.719013 185 "M" "Other" "correct" "word" "correct" "eggplant" 1.791759 0 1.0986123 8 "plant" 4 1 0 "complex" 0.91629073 6.395 3.16 2.3908 1.9674 0.022287 0 0 0 0
"1502" "I" 6.194405 24 "F" "Other" "correct" "nonword" "correct" "dolphin" 4.007333 0 1.0986123 7 "animal" 24 30 0 "simplex" -0.21511138 6.3944 3.88 3.598 3.272 8.067759 0.32498 0.712569 0.040281 0.088323
"1503" "I" 6.566672 32 "F" "Other" "correct" "nonword" "correct" "vulture" 4.248495 0 1.0986123 7 "animal" 21 48 0 "simplex" -0.80077784 6.6213 2.28 3.6219 3.3054 1.270338 0.32498 0.237523 0.255822 0.186976
"1504" "I" 6.23637 34 "F" "Other" "correct" "nonword" "correct" "pig" 6.660575 2.7725887 2.3025851 3 "animal" 320 460 1.6313 "simplex" -0.36195692 6.2783 4.48 3.4075 3.12 12.636518 10.886833 17.576713 0.861537 1.390946
"1505" "I" 6.495266 35 "F" "Other" "correct" "word" "correct" "cherry" 4.997212 0.6931472 1.6094379 6 "plant" 83 49 0.4754 "simplex" 0.51879379 6.3426 3.88 1.6278 1.2081 5.71652 3.249801 12.588727 0.568493 2.202166
"1506" "I" 6.09131 36 "F" "Other" "correct" "word" "correct" "orange" 6.378426 1.3862944 1.7917595 6 "plant" 258 93 1.0996 "simplex" 1.01353328 6.285 5.6 1.9453 1.5999 16.68154 6.337112 56.530509 0.379888 3.388806
"1507" "I" 6.09357 40 "F" "Other" "correct" "nonword" "correct" "shark" 5.880533 0.6931472 1.7917595 5 "animal" 246 111 0.0277 "simplex" 0.79088947 6.3179 3.76 3.9283 3.6724 3.231561 0.32498 3.80037 0.100564 1.176017
"1508" "I" 6.295266 41 "F" "Other" "correct" "word" "correct" "crocodile" 4.615121 0 0.6931472 9 "animal" 35 65 0 "simplex" -0.6061358 6.4433 3.36 3.8372 3.5655 2.574105 2.112371 2.850278 0.820623 1.107289
"1509" "I" 6.363028 42 "F" "Other" "correct" "word" "correct" "reindeer" 4.043051 0 0.6931472 8 "animal" 28 28 0 "complex" 0 6.4974 2.28 3.7494 3.4517 1.537777 0.97494 0.950093 0.633993 0.617835
"1510" "I" 6.066108 43 "F" "Other" "correct" "word" "correct" "lion" 6.098074 1.0986123 1.0986123 4 "animal" 152 292 0.234 "simplex" -0.64973469 6.3014 4.04 4.2029 4.0036 12.502798 4.874701 3.80037 0.389889 0.303962
"1511" "I" 6.102559 44 "F" "Other" "correct" "word" "correct" "donkey" 5.541264 0 1.0986123 6 "animal" 162 92 0.037 "simplex" 0.56115071 6.3328 3.48 3.9986 3.7598 5.081351 3.737271 6.650648 0.735488 1.308835
"1512" "I" 6.46925 45 "F" "Other" "correct" "word" "correct" "gull" 4.418841 1.6094379 1.0986123 4 "animal" 23 59 1.7296 "simplex" -0.91629073 6.4384 2.6 2.717 2.3265 1.894363 0.32498 0.237523 0.171551 0.125384
"1513" "I" 6.259581 46 "F" "Other" "correct" "word" "correct" "blueberry" 2.484907 0 1.0986123 9 "plant" 7 4 0 "complex" 0.47000363 6.3549 3.76 2.0858 1.6507 0.122576 0 0.237523 0 1.937755
"1514" "I" 7.135687 48 "F" "Other" "correct" "nonword" "correct" "snake" 6.120297 1.6094379 1.9459101 5 "animal" 251 161 0.8809 "simplex" 0.44183275 6.3113 3.52 3.5577 3.2734 7.109434 2.599841 4.275417 0.365689 0.601372
"1515" "I" 5.97381 50 "F" "Other" "correct" "nonword" "correct" "grape" 5.192957 1.0986123 1.0986123 5 "plant" 37 142 1.1273 "simplex" -1.32525847 6.3036 4.68 1.5349 1.1317 2.975265 0.64996 1.662662 0.218455 0.558828
"1516" "I" 5.905362 51 "F" "Other" "correct" "word" "correct" "carrot" 4.976734 0.6931472 1.6094379 6 "plant" 45 99 0.0594 "simplex" -0.77652879 6.35 5.48 1.8449 1.4437 3.398711 2.437351 14.963958 0.71714 4.402834
"1517" "I" 6.263398 52 "F" "Other" "correct" "word" "correct" "butterfly" 5.214936 0 1.0986123 9 "animal" 88 95 0 "complex" -0.07571182 6.4062 4.08 3.8757 3.6141 6.719418 0.64996 5.463032 0.096729 0.813022
"1518" "I" 6.030685 54 "F" "Other" "correct" "nonword" "correct" "apple" 6.304449 1.0986123 1.0986123 5 "plant" 315 231 0.496 "simplex" 0.30900484 6.2452 5.84 2.473 2.1948 24.54872 7.799522 40.853981 0.317716 1.6642
"1519" "I" 6.431331 56 "F" "Other" "correct" "nonword" "correct" "lettuce" 4.812184 0 1.0986123 7 "plant" 115 7 0 "simplex" 2.67414865 6.3753 5.12 2.0139 1.6395 3.721867 0.97494 7.600741 0.261949 2.042185
"1520" "I" 6.483107 57 "F" "Other" "correct" "word" "correct" "asparagus" 3.663562 0 1.0986123 9 "plant" 19 19 0 "simplex" 0 6.4939 3.68 1.866 1.4424 1.281481 0 0 0 0
"1521" "I" 6.194405 58 "F" "Other" "correct" "word" "correct" "goat" 6.228511 1.9459101 1.0986123 4 "animal" 209 297 1.0093 "simplex" -0.34998596 6.2772 3.88 3.8703 3.647 6.362832 0.64996 4.037893 0.10215 0.634606
"1522" "I" 6.061457 59 "F" "Other" "correct" "word" "correct" "clove" 3.663562 0 1.6094379 5 "plant" 16 22 0 "simplex" -0.30228087 6.4277 3.12 1.6785 1.2208 1.482061 0 0.237523 0 0.160265
"1523" "I" 6.368187 63 "F" "Other" "correct" "nonword" "incorrect" "bunny" 3.332205 0 1.0986123 5 "animal" 19 8 0 "simplex" 0.7985077 6.4092 3.4 3.615 3.271 3.276134 0.16249 10.451018 0.049598 3.190046
"1524" "I" 6.282267 67 "F" "Other" "correct" "nonword" "incorrect" "swan" 4.962845 1.3862944 1.3862944 4 "animal" 88 46 0.7769 "simplex" 0.63848877 6.3781 3 3.2612 2.9268 5.281931 2.599841 2.850278 0.492214 0.539628
"1525" "I" 6.320768 69 "F" "Other" "correct" "nonword" "correct" "eggplant" 1.791759 0 1.0986123 8 "plant" 4 1 0 "complex" 0.91629073 6.395 3.16 2.3908 1.9674 0.022287 0 0 0 0
"1526" "I" 6.329721 71 "F" "Other" "correct" "nonword" "correct" "strawberry" 4.75359 0 1.3862944 10 "plant" 50 65 0 "complex" -0.25782911 6.3475 5.04 1.8922 1.4951 2.919548 0.64996 18.526805 0.222624 6.345778
"1527" "I" 6.390241 73 "F" "Other" "correct" "nonword" "correct" "mustard" 4.442651 0 1.3862944 7 "plant" 84 0 0 "simplex" 4.44265126 6.4177 4 1.8218 1.4082 4.524185 4.549721 6.175602 1.005644 1.36502
"1528" "I" 6.368187 74 "F" "Other" "correct" "word" "correct" "magpie" 2.995732 0 1.0986123 6 "animal" 13 6 0 "simplex" 0.69314718 6.4871 2.68 3.6695 3.3214 1.092045 0.32498 1.187616 0.297589 1.087516
"1529" "I" 6.383507 76 "F" "Other" "correct" "nonword" "correct" "beaver" 3.951244 0 2.0794415 6 "animal" 37 14 0 "simplex" 0.92953596 6.4199 2.2 3.2347 2.8413 1.482061 0 0 0 0
"1530" "I" 6.848005 77 "F" "Other" "correct" "word" "correct" "broccoli" 2.833213 0 1.0986123 8 "plant" 16 0 0 "simplex" 2.83321334 6.4157 4.96 1.9817 1.5459 1.170048 0.64996 5.938079 0.555499 5.075073
"1531" "I" 6.146329 78 "F" "Other" "correct" "word" "correct" "elephant" 6.063785 0.6931472 1.0986123 8 "animal" 113 316 0.213 "simplex" -1.02270333 6.322 3.88 4.1927 3.9911 8.691785 8.611973 7.363218 0.990818 0.847147
"1532" "I" 6.09131 79 "F" "Other" "correct" "word" "correct" "banana" 5.023881 0 1.0986123 6 "plant" 74 77 0 "simplex" -0.03922071 6.3178 5.68 2.0802 1.7189 4.524185 1.29992 23.039745 0.287327 5.092573
"1533" "I" 6.167516 85 "F" "Other" "correct" "nonword" "correct" "sheep" 6.577861 2.3025851 1.3862944 5 "animal" 359 359 1.5565 "simplex" 0 6.2984 5.2 3.7201 3.4881 29.752647 43.872313 22.327176 1.474568 0.750427
"1534" "I" 6.238325 86 "F" "Other" "correct" "word" "correct" "melon" 4.127134 1.0986123 1.0986123 5 "plant" 38 23 0.5392 "simplex" 0.48550782 6.3712 3.56 1.5924 1.1586 2.15066 0.16249 1.187616 0.075554 0.55221
"1535" "I" 6.326149 87 "F" "Other" "correct" "word" "correct" "almond" 4.204693 0 1.0986123 6 "plant" 24 42 0 "simplex" -0.54232429 6.3908 3.72 1.8912 1.486 3.075555 0.16249 1.425139 0.052833 0.463376
"1536" "I" 5.976351 88 "F" "Other" "correct" "word" "correct" "potato" 6.461468 0 1.0986123 6 "plant" 206 433 0 "simplex" -0.74032574 6.3833 5.8 2.8516 2.6131 7.934039 8.286993 25.890023 1.044486 3.263158
"1537" "I" 6.331502 90 "F" "Other" "correct" "nonword" "incorrect" "hedgehog" 3.637586 0 1.0986123 8 "animal" 21 16 0 "simplex" 0.25782911 6.5924 3.32 3.592 3.2545 2.718969 0.64996 3.325324 0.239047 1.223009
"1538" "I" 6.411818 93 "F" "Other" "correct" "nonword" "correct" "leek" 3.332205 0 1.0986123 4 "plant" 5 22 0 "simplex" -1.34373475 6.42 3.68 1.8898 1.459 0.846892 0.16249 2.375231 0.191866 2.804646
"1539" "I" 6.148468 96 "F" "Other" "correct" "nonword" "correct" "whale" 5.298317 1.0986123 1.3862944 5 "animal" 104 95 0.4994 "simplex" 0.08961216 6.3548 3.96 3.535 3.2365 5.872526 1.949881 1.900185 0.332034 0.323572
"1540" "I" 6.049733 98 "F" "Other" "correct" "nonword" "correct" "tomato" 5.545177 0 1.0986123 6 "plant" 123 132 0 "simplex" -0.07006756 6.3422 5.44 2.2952 1.9716 7.120577 0.48747 20.426991 0.068459 2.868727
"1541" "I" 5.961005 102 "F" "Other" "correct" "nonword" "incorrect" "mouse" 5.805135 1.9459101 1.6094379 5 "animal" 146 184 0.4497 "simplex" -0.22992324 6.3261 4.44 3.7255 3.4551 18.297321 18.848846 10.688542 1.030142 0.584159
"1542" "I" 6.327937 105 "F" "Other" "correct" "word" "correct" "ant" 5.347108 1.3862944 1.0986123 3 "animal" 69 140 0.562 "simplex" -0.70026465 6.3231 3.6 3.6275 3.3489 4.591045 0.16249 3.80037 0.035393 0.827779
"1543" "I" 6.251904 109 "F" "Other" "correct" "nonword" "incorrect" "goose" 5.267858 1.7917595 1.3862944 5 "animal" 103 85 1.4565 "simplex" 0.1900436 6.3514 3.4 3.0071 2.6612 4.401609 1.949881 1.900185 0.442993 0.431702
"1544" "I" 6.401917 110 "F" "Other" "correct" "word" "correct" "paprika" 2.484907 0 1.0986123 7 "plant" 11 0 0 "simplex" 2.48490665 6.4825 3.44 2.0858 1.6507 0.456876 0 0.475046 0 1.039771
"1545" "I" 6.837333 111 "F" "Other" "correct" "word" "correct" "woodpecker" 2.890372 0 0.6931472 10 "animal" 11 6 0 "complex" 0.5389965 6.5041 2.04 3.8417 3.52 1.025185 0.48747 0 0.475495 0
"1546" "I" 6.154858 115 "F" "Other" "correct" "nonword" "incorrect" "pineapple" 3.988984 0 1.0986123 9 "plant" 44 9 0 "complex" 1.5040774 6.4022 4.4 1.8716 1.4581 2.596392 0.64996 6.650648 0.250332 2.561496
"1547" "I" 6.161207 121 "F" "Other" "correct" "nonword" "incorrect" "bat" 5.918894 2.1972246 2.3025851 3 "animal" 155 103 2.2641 "simplex" 0.40546511 6.329 3.2 2.5589 2.1666 9.427243 5.199682 6.888171 0.551559 0.730667
"1548" "I" 6.169611 125 "F" "Other" "correct" "nonword" "correct" "cat" 7.086738 2.7725887 2.1972246 3 "animal" 739 456 0.6845 "simplex" 0.4819668 6.2675 5.64 4.3152 4.1296 36.940084 18.523866 110.923309 0.501457 3.00279
"1549" "I" 5.998937 127 "F" "Other" "correct" "nonword" "correct" "bee" 5.700444 1.7917595 1.0986123 3 "animal" 118 180 0.8521 "simplex" -0.41937354 6.2978 4.56 3.6399 3.3756 5.281931 1.6249 5.938079 0.307634 1.124225
"1550" "I" 6.161207 130 "F" "Other" "correct" "nonword" "correct" "avocado" 3.433987 0 1.3862944 7 "plant" 24 6 0 "simplex" 1.27296568 6.4032 4.12 1.7737 1.3256 0.936038 0.81245 0.950093 0.867967 1.015015
"1551" "I" 6.068426 132 "F" "Other" "correct" "nonword" "correct" "eagle" 5.117994 1.0986123 1.7917595 5 "animal" 129 37 0.7235 "simplex" 1.22994829 6.3692 2.88 3.1948 2.8461 12.246502 1.29992 1.900185 0.106146 0.155161
"1552" "I" 6.011267 133 "F" "Other" "correct" "word" "correct" "olive" 5.587249 1.0986123 1.9459101 5 "plant" 160 78 0.5684 "simplex" 0.71195651 6.295 4.12 1.6987 1.2952 3.877873 0 2.850278 0 0.735011
"1553" "I" 6.212606 134 "F" "Other" "correct" "word" "correct" "beetroot" 3.555348 0 1.0986123 8 "plant" 15 19 0 "complex" -0.22314355 6.4468 3.88 1.8705 1.4442 0.635169 0.16249 0.475046 0.255822 0.747906
"1554" "I" 6.248043 135 "F" "Other" "correct" "word" "correct" "frog" 5.129899 2.0794415 1.3862944 4 "animal" 74 94 1.0456 "simplex" -0.23638878 6.3335 3.76 3.1746 2.8385 5.059064 1.46241 10.451018 0.289067 2.065801
"1555" "I" 6.357842 137 "F" "Other" "correct" "nonword" "correct" "mushroom" 5.537334 0.6931472 1.9459101 8 "plant" 90 137 0.4777 "simplex" -0.41639418 6.3365 4.8 1.7232 1.3199 3.264991 0.64996 6.413125 0.19907 1.964209
"1556" "I" 6.434547 138 "F" "Other" "correct" "word" "correct" "gherkin" 2.079442 0 1.0986123 7 "plant" 4 3 0 "simplex" 0.22314355 6.5161 3.16 2.2484 1.8185 0.111433 0.16249 0.237523 1.458184 2.131531
"1557" "I" 6.177944 140 "F" "Other" "correct" "nonword" "correct" "spider" 4.844187 0.6931472 1.0986123 6 "animal" 73 53 0.5763 "simplex" 0.31508105 6.3401 5.04 3.4381 3.1251 6.017389 1.13743 23.039745 0.189024 3.828861
"1558" "I" 6.421622 146 "F" "Other" "correct" "nonword" "correct" "fox" 5.652489 1.7917595 1.9459101 3 "animal" 177 100 1.2335 "simplex" 0.56666303 6.3451 3.24 3.0987 2.7558 10.028982 83.194905 5.938079 8.295449 0.592092
"1559" "I" 6.575076 149 "F" "Other" "correct" "nonword" "incorrect" "monkey" 5.783825 0 1.6094379 6 "animal" 162 162 0 "simplex" 0 6.3075 4 3.9559 3.7049 5.348791 2.924821 14.963958 0.546819 2.797634
"1560" "I" 6.206576 151 "F" "Other" "correct" "nonword" "correct" "squirrel" 4.70953 0 1.0986123 8 "animal" 63 47 0 "simplex" 0.28768207 6.4491 2.8 3.7114 3.4178 2.406956 0.81245 1.425139 0.337543 0.592092
"1561" "I" 6.369901 153 "F" "Other" "correct" "nonword" "correct" "mole" 4.60517 1.0986123 1.9459101 4 "animal" 69 30 0.6968 "simplex" 0.81450804 6.415 2.4 2.9999 2.6112 5.738806 4.062251 2.850278 0.707856 0.496667
"1562" "I" 6.259581 155 "F" "Other" "correct" "nonword" "correct" "dog" 7.667626 3.1354942 2.0794415 3 "animal" 1233 828 1.2129 "simplex" 0.39779605 6.2956 6.04 4.6429 4.5167 74.838494 50.859385 241.56104 0.679589 3.227765
"1563" "I" 6.186209 156 "F" "Other" "correct" "word" "correct" "peanut" 4.59512 0.6931472 1.6094379 6 "plant" 49 49 0.4719 "complex" 0 6.2664 4.68 1.517 1.074 1.214621 0 5.938079 0 4.888832
"1564" "I" 6.109248 157 "F" "Other" "correct" "word" "correct" "owl" 4.859812 1.3862944 0.6931472 3 "animal" 54 74 0.7912 "simplex" -0.31015493 6.3582 3.12 3.4758 3.1806 12.057065 0 6.175602 0 0.512198
"1565" "I" 6.666957 158 "F" "Other" "correct" "word" "correct" "wasp" 4.682131 1.3862944 0.6931472 4 "animal" 43 64 0.4621 "simplex" -0.39019764 6.5057 3.36 3.6045 3.3145 2.551819 1.46241 0.712569 0.573086 0.27924
"1566" "I" 6.09357 159 "F" "Other" "correct" "word" "correct" "squid" 3.970292 0 1.0986123 5 "animal" 23 29 0 "simplex" -0.22314355 6.4089 3.08 3.5957 3.2684 1.64921 0.16249 1.187616 0.098526 0.720112
"1567" "I" 5.981414 163 "F" "Other" "correct" "nonword" "incorrect" "pear" 4.727388 0 1.0986123 4 "plant" 44 68 0 "simplex" -0.42744401 6.3353 4.52 1.9908 1.6114 2.05037 1.46241 7.363218 0.713242 3.591166
"1568" "I" 6.154858 164 "F" "Other" "correct" "word" "correct" "chicken" 6.59987 1.0986123 1.7917595 7 "animal" 534 200 0.0798 "simplex" 0.97896184 6.3028 5.68 4.3832 4.1964 17.651009 7.312052 100.709814 0.414257 5.705612
"1569" "I" 6.063785 165 "F" "Other" "correct" "word" "correct" "radish" 3.044522 0.6931472 1.3862944 6 "plant" 11 9 0.9403 "simplex" 0.18232156 6.4133 3.12 1.3226 0.8244 1.961223 0 0 0 0
"1570" "I" 6.263398 168 "F" "Other" "correct" "nonword" "correct" "cucumber" 4.454347 0 1.0986123 8 "plant" 54 31 0 "simplex" 0.54159728 6.4393 4.48 1.9295 1.5357 2.11723 0.64996 4.037893 0.306986 1.907159
"1571" "I" 6.070738 169 "F" "Other" "correct" "word" "correct" "apricot" 3.828641 0 1.3862944 7 "plant" 26 19 0 "simplex" 0.30010459 6.3637 4.4 1.7597 1.3216 2.340096 0.64996 3.80037 0.277749 1.624023
"1572" "I" 5.921578 170 "F" "Other" "correct" "word" "correct" "camel" 6.109248 0.6931472 0.6931472 5 "animal" 146 303 0.1012 "simplex" -0.72659511 6.386 2.72 4.4303 4.2654 3.320707 0.81245 3.087801 0.244662 0.929862
"1573" "I" 6.398595 171 "F" "Other" "correct" "word" "correct" "blackberry" 4.060443 0.6931472 1.3862944 10 "plant" 26 31 0.3492 "complex" -0.16989904 6.3959 3.28 1.5831 1.1365 1.270338 0.16249 1.187616 0.127911 0.934882
"1574" "I" 5.996452 173 "F" "Other" "correct" "nonword" "incorrect" "lemon" 5.631212 0.6931472 1.6094379 5 "plant" 233 45 0.6285 "simplex" 1.62667972 6.29 5.04 1.8119 1.4315 11.834199 3.087311 22.089653 0.26088 1.866595
"1575" "I" 6.400257 174 "F" "Other" "correct" "word" "correct" "tortoise" 4.624973 0 0.6931472 8 "animal" 71 30 0.3463 "simplex" 0.84267891 6.5318 2.52 3.653 3.3654 1.78293 0.48747 1.425139 0.27341 0.799324
"1576" "I" 5.945421 176 "F" "Other" "correct" "nonword" "correct" "kiwi" 3.044522 0 1.3862944 4 "plant" 11 9 0 "simplex" 0.18232156 6.3173 5.28 1.8289 1.3752 2.139516 0 1.187616 0 0.555086
"1577" "I" 6.008813 178 "F" "Other" "correct" "nonword" "correct" "horse" 7.77191 3.3322045 2.0794415 5 "animal" 1518 854 1.0925 "simplex" 0.57470603 6.3364 4.84 4.8195 4.7138 79.173243 62.071199 59.855833 0.783992 0.756011
"1578" "I" 6.642487 182 "F" "Other" "correct" "nonword" "incorrect" "stork" 3.044522 0 0.6931472 5 "animal" 13 7 0 "simplex" 0.55961579 6.5239 2 3.8085 3.4878 0.724315 0 0.475046 0 0.655856
"1579" "I" 6.244167 183 "F" "Other" "correct" "word" "correct" "walnut" 4.49981 0 1.3862944 6 "plant" 70 19 0 "simplex" 1.2669476 6.4226 3.92 1.8327 1.422 3.454427 0.64996 4.987986 0.188153 1.44394
"1580" "I" 6.188264 184 "F" "Other" "correct" "word" "correct" "moose" 2.70805 0 0.6931472 5 "animal" 7 7 0 "simplex" 0 6.3349 2.48 3.8893 3.5673 0.668599 0 2.375231 0 3.552551
"317" "J" 6.714171 23 "F" "Other" "correct" "word" "correct" "beaver" 3.951244 0 2.0794415 6 "animal" 37 14 0 "simplex" 0.92953596 6.4199 2.2 3.2347 2.8413 1.482061 0 0 0 0
"318" "J" 6.075346 26 "F" "Other" "incorrect" "nonword" "correct" "hedgehog" 3.637586 0 1.0986123 8 "animal" 21 16 0 "simplex" 0.25782911 6.5924 3.32 3.592 3.2545 2.718969 0.64996 3.325324 0.239047 1.223009
"319" "J" 6.519147 27 "F" "Other" "correct" "word" "incorrect" "gull" 4.418841 1.6094379 1.0986123 4 "animal" 23 59 1.7296 "simplex" -0.91629073 6.4384 2.6 2.717 2.3265 1.894363 0.32498 0.237523 0.171551 0.125384
"320" "J" 6.34388 30 "F" "Other" "correct" "nonword" "correct" "carrot" 4.976734 0.6931472 1.6094379 6 "plant" 45 99 0.0594 "simplex" -0.77652879 6.35 5.48 1.8449 1.4437 3.398711 2.437351 14.963958 0.71714 4.402834
"321" "J" 6.34388 32 "F" "Other" "correct" "nonword" "correct" "clove" 3.663562 0 1.6094379 5 "plant" 16 22 0 "simplex" -0.30228087 6.4277 3.12 1.6785 1.2208 1.482061 0 0.237523 0 0.160265
"322" "J" 6.496775 36 "F" "Other" "correct" "nonword" "correct" "mouse" 5.805135 1.9459101 1.6094379 5 "animal" 146 184 0.4497 "simplex" -0.22992324 6.3261 4.44 3.7255 3.4551 18.297321 18.848846 10.688542 1.030142 0.584159
"323" "J" 6.848005 38 "F" "Other" "correct" "nonword" "correct" "bunny" 3.332205 0 1.0986123 5 "animal" 19 8 0 "simplex" 0.7985077 6.4092 3.4 3.615 3.271 3.276134 0.16249 10.451018 0.049598 3.190046
